stimulus,category,stim_type,Corr,thisN,thisTrialN,thisRepN,key_resp_1.keys,key_resp_1.corr,key_resp_1.rt,key_resp_1.duration,key_resp_2.keys,key_resp_2.corr,key_resp_2.rt,key_resp_2.duration,key_resp_3.keys,key_resp_3.corr,key_resp_3.rt,key_resp_3.duration,key_resp_4.keys,key_resp_4.corr,key_resp_4.rt,key_resp_4.duration,trials.thisRepN,trials.thisTrialN,trials.thisN,trials.thisIndex,main_loop.thisRepN,main_loop.thisTrialN,main_loop.thisN,main_loop.thisIndex,trials_2.thisRepN,trials_2.thisTrialN,trials_2.thisN,trials_2.thisIndex,trials_3.thisRepN,trials_3.thisTrialN,trials_3.thisN,trials_3.thisIndex,trials_5.thisRepN,trials_5.thisTrialN,trials_5.thisN,trials_5.thisIndex,trials_4.thisRepN,trials_4.thisTrialN,trials_4.thisN,trials_4.thisIndex,thisRow.t,notes,Intro.started,IntroText.started,Positive_1_1.started,Negative_1_1.started,key_resp_intro.started,Intro.stopped,key_resp_intro.keys,key_resp_intro.rt,key_resp_intro.duration,trial_1.started,image_stim_1.started,Drug_1.started,Positive_1_2.started,Negative_1_2.started,key_resp_1.started,trial_1.stopped,trials.key_resp_1.keys,trials.key_resp_1.corr,trials.key_resp_1.rt,trials.key_resp_1.duration,feedback.started,msg_feedback_1.started,msg_feedback_1.stopped,feedback.stopped,Intro_2.started,Positive_2_1.started,Negative_2_1.started,key_resp_intro_2.started,IntroText_2.started,Intro_2.stopped,key_resp_intro_2.keys,key_resp_intro_2.rt,key_resp_intro_2.duration,main_loop_.started,main_loop_.stopped,trial_2.started,image_stim_2.started,Drug_2.started,Positive_2_2.started,Negative_2_2.started,key_resp_2.started,trial_2.stopped,trials_2.key_resp_2.keys,trials_2.key_resp_2.corr,trials_2.key_resp_2.rt,trials_2.key_resp_2.duration,feedback_2.started,msg_feedback_2.started,msg_feedback_2.stopped,feedback_2.stopped,Intro_3.started,IntroText_3.started,Positive_3_1.started,Negative_3_1.started,key_resp_intro_3.started,Intro_3.stopped,key_resp_intro_3.keys,key_resp_intro_3.rt,key_resp_intro_3.duration,trial_3.started,image_stim_3.started,Drug_3.started,Positive_3_2.started,Negative_3_2.started,key_resp_3.started,trial_3.stopped,trials_3.key_resp_3.keys,trials_3.key_resp_3.corr,trials_3.key_resp_3.rt,trials_3.key_resp_3.duration,feedback_3.started,msg_feedback.started,msg_feedback.stopped,feedback_3.stopped,Intro_4.started,Positive_4_1.started,Negative_4_1.started,key_resp_intro_4.started,IntroText_4.started,Intro_4.stopped,key_resp_intro_4.keys,key_resp_intro_4.rt,key_resp_intro_4.duration,main_loop_2.started,main_loop_2.stopped,trial_4.started,image_stim_4.started,Drug_4.started,Positive_4_2.started,Negative_4_2.started,key_resp_4.started,trial_4.stopped,trials_4.key_resp_4.keys,trials_4.key_resp_4.corr,trials_4.key_resp_4.rt,trials_4.key_resp_4.duration,feedback_4.started,msg_feedback_3.started,msg_feedback_3.stopped,feedback_4.stopped,participant,session,date,expName,psychopyVersion,frameRate,expStart,
,,,,,,,,,,,,,,,,,,,,,,,,,,,,,,,,,,,,,,,,,,,,,,,,,0.01497160000144504,0.04193700000178069,0.04193700000178069,0.04193700000178069,0.04193700000178069,2.7896126999985427,space,2.470433899987256,None,,,,,,,,,,,,,,,,,,,,,,,,,,,,,,,,,,,,,,,,,,,,,,,,,,,,,,,,,,,,,,,,,,,,,,,,,,,,,,,,,,,,,,,,,,,,286422,001,2025-07-08_19h07.18.796,SC-IAT,2024.2.4,59.897670820961345,2025-07-08 19h07.42.759535 +0900,
비참하다.jpg,부정,image,slash,0,0,0,slash,1,2.679791500006104,None,,,,,,,,,,,,,0,0,0,30,,,,,,,,,,,,,,,,,,,,,3.0584194000111893,,,,,,,,,,,2.9053318000223953,3.0584194000111893,3.0584194000111893,3.0584194000111893,3.0584194000111893,3.0584194000111893,5.7545738000189885,slash,1,2.679791500006104,None,6.04222380000283,6.0740019000077154,6.693897500023013,6.583005399996182,,,,,,,,,,,,,,,,,,,,,,,,,,,,,,,,,,,,,,,,,,,,,,,,,,,,,,,,,,,,,,,,,,,,,,,,,,,,,286422,001,2025-07-08_19h07.18.796,SC-IAT,2024.2.4,59.897670820961345,2025-07-08 19h07.42.759535 +0900,
역겹다.jpg,부정,image,slash,1,1,0,slash,1,0.5815339000255335,None,,,,,,,,,,,,,0,1,1,34,,,,,,,,,,,,,,,,,,,,,6.693897500023013,,,,,,,,,,,6.661758500005817,6.693897500023013,6.693897500023013,6.693897500023013,6.693897500023013,6.744836800004123,7.365768100018613,slash,1,0.5815339000255335,None,7.396078600024339,7.5282109999971,7.761885100015206,7.695139300019946,,,,,,,,,,,,,,,,,,,,,,,,,,,,,,,,,,,,,,,,,,,,,,,,,,,,,,,,,,,,,,,,,,,,,,,,,,,,,286422,001,2025-07-08_19h07.18.796,SC-IAT,2024.2.4,59.897670820961345,2025-07-08 19h07.42.759535 +0900,
흐뭇하다.jpg,긍정,image,z,2,2,0,slash,0,0.4769400999939535,None,,,,,,,,,,,,,0,2,2,2,,,,,,,,,,,,,,,,,,,,,7.761885100015206,,,,,,,,,,,7.742435100022703,7.795913900015876,7.761885100015206,7.761885100015206,7.761885100015206,7.844168800016632,8.346744900016347,slash,0,0.4769400999939535,None,8.347328900010325,8.509628100000555,8.76040220001596,8.679495999997016,,,,,,,,,,,,,,,,,,,,,,,,,,,,,,,,,,,,,,,,,,,,,,,,,,,,,,,,,,,,,,,,,,,,,,,,,,,,,286422,001,2025-07-08_19h07.18.796,SC-IAT,2024.2.4,59.897670820961345,2025-07-08 19h07.42.759535 +0900,
None,None,None,None,3,3,0,z,0,0.4177705000038259,None,,,,,,,,,,,,,0,3,3,61,,,,,,,,,,,,,,,,,,,,,8.76040220001596,,,,,,,,,,,8.727527800016105,8.76040220001596,8.76040220001596,8.76040220001596,8.76040220001596,8.811327100003837,9.265883200016106,z,0,0.4177705000038259,None,9.268975600018166,9.442549300001701,9.641493900009664,9.58336849999614,,,,,,,,,,,,,,,,,,,,,,,,,,,,,,,,,,,,,,,,,,,,,,,,,,,,,,,,,,,,,,,,,,,,,,,,,,,,,286422,001,2025-07-08_19h07.18.796,SC-IAT,2024.2.4,59.897670820961345,2025-07-08 19h07.42.759535 +0900,
None,None,None,None,4,4,0,slash,0,0.445581999985734,None,,,,,,,,,,,,,0,4,4,56,,,,,,,,,,,,,,,,,,,,,9.641493900009664,,,,,,,,,,,9.623203900002409,9.659331500006374,9.641493900009664,9.641493900009664,9.641493900009664,9.709006300021429,10.165509500016924,slash,0,0.445581999985734,None,10.167970400012564,10.29592980002053,10.491855600004783,10.450506900000619,,,,,,,,,,,,,,,,,,,,,,,,,,,,,,,,,,,,,,,,,,,,,,,,,,,,,,,,,,,,,,,,,,,,,,,,,,,,,286422,001,2025-07-08_19h07.18.796,SC-IAT,2024.2.4,59.897670820961345,2025-07-08 19h07.42.759535 +0900,
None,None,None,None,5,5,0,slash,0,0.6537997999985237,None,,,,,,,,,,,,,0,5,5,51,,,,,,,,,,,,,,,,,,,,,10.491855600004783,,,,,,,,,,,10.473827800014988,10.510505800019018,10.491855600004783,10.491855600004783,10.491855600004783,10.57601550000254,11.283466100023361,slash,0,0.6537997999985237,None,11.28636749999714,11.428426300000865,11.660434100020211,11.591702100005932,,,,,,,,,,,,,,,,,,,,,,,,,,,,,,,,,,,,,,,,,,,,,,,,,,,,,,,,,,,,,,,,,,,,,,,,,,,,,286422,001,2025-07-08_19h07.18.796,SC-IAT,2024.2.4,59.897670820961345,2025-07-08 19h07.42.759535 +0900,
평화롭다.jpg,긍정,image,z,6,6,0,slash,0,1.234571999986656,None,,,,,,,,,,,,,0,6,6,8,,,,,,,,,,,,,,,,,,,,,11.660434100020211,,,,,,,,,,,11.64311600002111,11.660434100020211,11.660434100020211,11.660434100020211,11.660434100020211,11.695556500024395,12.939803700021002,slash,0,1.234571999986656,None,12.941626100015128,13.058094900014112,13.295975600020029,13.212121700024,,,,,,,,,,,,,,,,,,,,,,,,,,,,,,,,,,,,,,,,,,,,,,,,,,,,,,,,,,,,,,,,,,,,,,,,,,,,,286422,001,2025-07-08_19h07.18.796,SC-IAT,2024.2.4,59.897670820961345,2025-07-08 19h07.42.759535 +0900,
drug4.jpg,마약,image,z,7,7,0,z,1,2.0551162000047043,None,,,,,,,,,,,,,0,7,7,45,,,,,,,,,,,,,,,,,,,,,13.295975600020029,,,,,,,,,,,13.276460599998245,13.295975600020029,13.295975600020029,13.295975600020029,13.295975600020029,13.344554000010248,15.417473900015466,z,1,2.0551162000047043,None,15.459841400006553,15.612496500019915,16.225249800016172,16.139438600017456,,,,,,,,,,,,,,,,,,,,,,,,,,,,,,,,,,,,,,,,,,,,,,,,,,,,,,,,,,,,,,,,,,,,,,,,,,,,,286422,001,2025-07-08_19h07.18.796,SC-IAT,2024.2.4,59.897670820961345,2025-07-08 19h07.42.759535 +0900,
None,None,None,None,8,8,0,slash,0,0.48974530000123195,None,,,,,,,,,,,,,0,8,8,49,,,,,,,,,,,,,,,,,,,,,16.225249800016172,,,,,,,,,,,16.211194800009253,16.225249800016172,16.225249800016172,16.225249800016172,16.225249800016172,16.258182600024156,16.780223000008846,slash,0,0.48974530000123195,None,16.801644300023327,16.94353210000554,17.16053020002437,17.083138600020902,,,,,,,,,,,,,,,,,,,,,,,,,,,,,,,,,,,,,,,,,,,,,,,,,,,,,,,,,,,,,,,,,,,,,,,,,,,,,286422,001,2025-07-08_19h07.18.796,SC-IAT,2024.2.4,59.897670820961345,2025-07-08 19h07.42.759535 +0900,
즐겁다.jpg,긍정,image,z,9,9,0,z,1,0.49989170001936145,None,,,,,,,,,,,,,0,9,9,16,,,,,,,,,,,,,,,,,,,,,17.16053020002437,,,,,,,,,,,17.133854800020345,17.16053020002437,17.16053020002437,17.16053020002437,17.16053020002437,17.193449500016868,17.733139600022696,z,1,0.49989170001936145,None,17.755117599997902,17.89292579999892,18.109333600004902,18.03310150001198,,,,,,,,,,,,,,,,,,,,,,,,,,,,,,,,,,,,,,,,,,,,,,,,,,,,,,,,,,,,,,,,,,,,,,,,,,,,,286422,001,2025-07-08_19h07.18.796,SC-IAT,2024.2.4,59.897670820961345,2025-07-08 19h07.42.759535 +0900,
None,None,None,None,10,10,0,z,0,1.2608532999875024,None,,,,,,,,,,,,,0,10,10,59,,,,,,,,,,,,,,,,,,,,,18.109333600004902,,,,,,,,,,,18.093409299995983,18.109333600004902,18.109333600004902,18.109333600004902,18.109333600004902,18.14191960002063,19.433193600008963,z,0,1.2608532999875024,None,19.434581800014712,19.575609200022882,19.77560610001092,19.718407100008335,,,,,,,,,,,,,,,,,,,,,,,,,,,,,,,,,,,,,,,,,,,,,,,,,,,,,,,,,,,,,,,,,,,,,,,,,,,,,286422,001,2025-07-08_19h07.18.796,SC-IAT,2024.2.4,59.897670820961345,2025-07-08 19h07.42.759535 +0900,
None,None,None,None,11,11,0,z,0,0.5158896999782883,None,,,,,,,,,,,,,0,11,11,57,,,,,,,,,,,,,,,,,,,,,19.77560610001092,,,,,,,,,,,19.76006490000873,19.77560610001092,19.77560610001092,19.77560610001092,19.77560610001092,19.825095000007423,20.347340200009057,z,0,0.5158896999782883,None,20.348557600023923,20.493481200013775,20.727953299996443,20.646504600008484,,,,,,,,,,,,,,,,,,,,,,,,,,,,,,,,,,,,,,,,,,,,,,,,,,,,,,,,,,,,,,,,,,,,,,,,,,,,,286422,001,2025-07-08_19h07.18.796,SC-IAT,2024.2.4,59.897670820961345,2025-07-08 19h07.42.759535 +0900,
좌절하다.jpg,부정,image,slash,12,12,0,slash,1,0.47857579999254085,None,,,,,,,,,,,,,0,12,12,38,,,,,,,,,,,,,,,,,,,,,20.727953299996443,,,,,,,,,,,20.698308699997142,20.727953299996443,20.727953299996443,20.727953299996443,20.727953299996443,20.763103700010106,21.250562700006412,slash,1,0.47857579999254085,None,21.251357600005576,21.37489610002376,21.59418430001824,21.53311499999836,,,,,,,,,,,,,,,,,,,,,,,,,,,,,,,,,,,,,,,,,,,,,,,,,,,,,,,,,,,,,,,,,,,,,,,,,,,,,286422,001,2025-07-08_19h07.18.796,SC-IAT,2024.2.4,59.897670820961345,2025-07-08 19h07.42.759535 +0900,
신나다.jpg,긍정,image,z,13,13,0,slash,0,0.6596002000151202,None,,,,,,,,,,,,,0,13,13,10,,,,,,,,,,,,,,,,,,,,,21.59418430001824,,,,,,,,,,,21.57530759999645,21.64272720000008,21.59418430001824,21.59418430001824,21.59418430001824,21.676435900008073,22.347776700014947,slash,0,0.6596002000151202,None,22.3483899999992,22.492746800009627,22.709314300009282,22.66569029999664,,,,,,,,,,,,,,,,,,,,,,,,,,,,,,,,,,,,,,,,,,,,,,,,,,,,,,,,,,,,,,,,,,,,,,,,,,,,,286422,001,2025-07-08_19h07.18.796,SC-IAT,2024.2.4,59.897670820961345,2025-07-08 19h07.42.759535 +0900,
경멸하다.jpg,부정,image,slash,14,14,0,z,0,0.455896399973426,None,,,,,,,,,,,,,0,14,14,23,,,,,,,,,,,,,,,,,,,,,22.709314300009282,,,,,,,,,,,22.690820300020278,22.726211300003342,22.709314300009282,22.709314300009282,22.709314300009282,22.776011200010544,23.23650389999966,z,0,0.455896399973426,None,23.2376153000223,23.358119700016687,23.661458200018387,23.498367100022733,,,,,,,,,,,,,,,,,,,,,,,,,,,,,,,,,,,,,,,,,,,,,,,,,,,,,,,,,,,,,,,,,,,,,,,,,,,,,286422,001,2025-07-08_19h07.18.796,SC-IAT,2024.2.4,59.897670820961345,2025-07-08 19h07.42.759535 +0900,
죄스럽다.jpg,부정,image,slash,15,15,0,z,0,1.3832312999875285,None,,,,,,,,,,,,,0,15,15,39,,,,,,,,,,,,,,,,,,,,,23.661458200018387,,,,,,,,,,,23.626979300024686,23.661458200018387,23.661458200018387,23.661458200018387,23.661458200018387,23.661458200018387,25.084875800006557,z,0,1.3832312999875285,None,25.086719700018875,25.22767439999734,25.474958900013007,25.387931800010847,,,,,,,,,,,,,,,,,,,,,,,,,,,,,,,,,,,,,,,,,,,,,,,,,,,,,,,,,,,,,,,,,,,,,,,,,,,,,286422,001,2025-07-08_19h07.18.796,SC-IAT,2024.2.4,59.897670820961345,2025-07-08 19h07.42.759535 +0900,
뿌듯하다.jpg,긍정,image,z,16,16,0,z,1,0.9040633999975398,None,,,,,,,,,,,,,0,16,16,5,,,,,,,,,,,,,,,,,,,,,25.474958900013007,,,,,,,,,,,25.463104100024793,25.474958900013007,25.474958900013007,25.474958900013007,25.474958900013007,25.49531830000342,26.40230529999826,z,1,0.9040633999975398,None,26.40332730000955,26.559930400020676,26.759563600004185,26.6983008000243,,,,,,,,,,,,,,,,,,,,,,,,,,,,,,,,,,,,,,,,,,,,,,,,,,,,,,,,,,,,,,,,,,,,,,,,,,,,,286422,001,2025-07-08_19h07.18.796,SC-IAT,2024.2.4,59.897670820961345,2025-07-08 19h07.42.759535 +0900,
질색하다.jpg,부정,image,slash,17,17,0,slash,1,0.5019359999860171,None,,,,,,,,,,,,,0,17,17,41,,,,,,,,,,,,,,,,,,,,,26.759563600004185,,,,,,,,,,,26.743019300018204,26.810295900009805,26.759563600004185,26.759563600004185,26.759563600004185,26.843683600018267,27.368930399999954,slash,1,0.5019359999860171,None,27.375307800015435,27.4949031000142,27.691623999999138,27.650962400017306,,,,,,,,,,,,,,,,,,,,,,,,,,,,,,,,,,,,,,,,,,,,,,,,,,,,,,,,,,,,,,,,,,,,,,,,,,,,,286422,001,2025-07-08_19h07.18.796,SC-IAT,2024.2.4,59.897670820961345,2025-07-08 19h07.42.759535 +0900,
억울하다.jpg,부정,image,slash,18,18,0,z,0,0.6510725000116508,None,,,,,,,,,,,,,0,18,18,37,,,,,,,,,,,,,,,,,,,,,27.691623999999138,,,,,,,,,,,27.684564499999397,27.709648000018205,27.691623999999138,27.691623999999138,27.691623999999138,27.777371400006814,28.434630200004904,z,0,0.6510725000116508,None,28.43953220002004,28.558137300016824,28.760200700024143,28.69832039999892,,,,,,,,,,,,,,,,,,,,,,,,,,,,,,,,,,,,,,,,,,,,,,,,,,,,,,,,,,,,,,,,,,,,,,,,,,,,,286422,001,2025-07-08_19h07.18.796,SC-IAT,2024.2.4,59.897670820961345,2025-07-08 19h07.42.759535 +0900,
None,None,None,None,19,19,0,slash,0,0.5310010999965016,None,,,,,,,,,,,,,0,19,19,50,,,,,,,,,,,,,,,,,,,,,28.760200700024143,,,,,,,,,,,28.744427099998575,28.81066909999936,28.760200700024143,28.760200700024143,28.760200700024143,28.84372230002191,29.382792100019287,slash,0,0.5310010999965016,None,29.38348770001903,29.525354600016726,29.72535200000857,29.668373100023018,,,,,,,,,,,,,,,,,,,,,,,,,,,,,,,,,,,,,,,,,,,,,,,,,,,,,,,,,,,,,,,,,,,,,,,,,,,,,286422,001,2025-07-08_19h07.18.796,SC-IAT,2024.2.4,59.897670820961345,2025-07-08 19h07.42.759535 +0900,
None,None,None,None,20,20,0,z,0,0.5171627000090666,None,,,,,,,,,,,,,0,20,20,62,,,,,,,,,,,,,,,,,,,,,29.72535200000857,,,,,,,,,,,29.707075800019084,29.74244760000147,29.72535200000857,29.72535200000857,29.72535200000857,29.791720600012923,30.352252000011504,z,0,0.5171627000090666,None,30.35400760002085,30.496022700011963,30.709351700003026,30.65561450002133,,,,,,,,,,,,,,,,,,,,,,,,,,,,,,,,,,,,,,,,,,,,,,,,,,,,,,,,,,,,,,,,,,,,,,,,,,,,,286422,001,2025-07-08_19h07.18.796,SC-IAT,2024.2.4,59.897670820961345,2025-07-08 19h07.42.759535 +0900,
분노하다.jpg,부정,image,slash,21,21,0,z,0,0.6261701000039466,None,,,,,,,,,,,,,0,21,21,26,,,,,,,,,,,,,,,,,,,,,30.709351700003026,,,,,,,,,,,30.697226000018418,30.709351700003026,30.709351700003026,30.709351700003026,30.709351700003026,30.759347900020657,31.401684300013585,z,0,0.6261701000039466,None,31.403026000014506,31.528461700014304,31.724878900015028,31.683974000014132,,,,,,,,,,,,,,,,,,,,,,,,,,,,,,,,,,,,,,,,,,,,,,,,,,,,,,,,,,,,,,,,,,,,,,,,,,,,,286422,001,2025-07-08_19h07.18.796,SC-IAT,2024.2.4,59.897670820961345,2025-07-08 19h07.42.759535 +0900,
평온하다.jpg,긍정,image,z,22,22,0,slash,0,0.4996036000084132,None,,,,,,,,,,,,,0,22,22,4,,,,,,,,,,,,,,,,,,,,,31.724878900015028,,,,,,,,,,,31.709521400014637,31.742159400018863,31.724878900015028,31.724878900015028,31.724878900015028,31.792790900013642,32.33150170001318,slash,0,0.4996036000084132,None,32.333997900015675,32.46217140002409,32.728075699997135,32.645322700002,,,,,,,,,,,,,,,,,,,,,,,,,,,,,,,,,,,,,,,,,,,,,,,,,,,,,,,,,,,,,,,,,,,,,,,,,,,,,286422,001,2025-07-08_19h07.18.796,SC-IAT,2024.2.4,59.897670820961345,2025-07-08 19h07.42.759535 +0900,
실망하다.jpg,부정,image,slash,23,23,0,z,0,0.6857561999931931,None,,,,,,,,,,,,,0,23,23,36,,,,,,,,,,,,,,,,,,,,,32.728075699997135,,,,,,,,,,,32.70510750001995,32.728075699997135,32.728075699997135,32.728075699997135,32.728075699997135,32.778459699999075,33.478526100021554,z,0,0.6857561999931931,None,33.479548500006786,33.627576099999715,33.829035600007046,33.79333139999653,,,,,,,,,,,,,,,,,,,,,,,,,,,,,,,,,,,,,,,,,,,,,,,,,,,,,,,,,,,,,,,,,,,,,,,,,,,,,286422,001,2025-07-08_19h07.18.796,SC-IAT,2024.2.4,59.897670820961345,2025-07-08 19h07.42.759535 +0900,
,,,,,,,,,,,,,,,,,,,,,,,,,,,,,,,,,,,,,,,,,,,,,,,,,,,,,,,,,,,,,,,,,,,,,,,,,33.79400690001785,33.829035600007046,33.829035600007046,33.829035600007046,33.829035600007046,35.12255830000504,space,1.2592900000163354,None,,,,,,,,,,,,,,,,,,,,,,,,,,,,,,,,,,,,,,,,,,,,,,,,,,,,,,,,,,,,,,,,,,,,286422,001,2025-07-08_19h07.18.796,SC-IAT,2024.2.4,59.897670820961345,2025-07-08 19h07.42.759535 +0900,
상쾌하다.jpg ,긍정,image,z,0,0,0,,,,,slash,0,0.8465047999925446,None,,,,,,,,,,,,,0,0,0,0,0,0,0,0,,,,,,,,,,,,,35.310099599999376,,,,,,,,,,,,,,,,,,,,,,,,,,,,,,,,,,,35.23500840002089,35.23594750001212,35.277227500017034,35.310099599999376,35.310099599999376,35.310099599999376,35.310099599999376,35.3598552000185,36.236095100000966,slash,0,0.8465047999925446,None,36.38965490000555,36.40775700000813,36.59204360001604,36.55103709999821,,,,,,,,,,,,,,,,,,,,,,,,,,,,,,,,,,,,,,,,,,,,,,,,,,,286422,001,2025-07-08_19h07.18.796,SC-IAT,2024.2.4,59.897670820961345,2025-07-08 19h07.42.759535 +0900,
평온하다.jpg,긍정,image,z,1,1,0,,,,,slash,0,0.4844837999844458,None,,,,,,,,,,,,,0,0,0,0,0,1,1,1,,,,,,,,,,,,,36.59204360001604,,,,,,,,,,,,,,,,,,,,,,,,,,,,,,,,,,,,,36.57403780001914,36.610338900005445,36.59204360001604,36.59204360001604,36.59204360001604,36.675704599998426,37.19094670002232,slash,0,0.4844837999844458,None,37.19376490000286,37.3119735000073,37.545011000009254,37.46846280002501,,,,,,,,,,,,,,,,,,,,,,,,,,,,,,,,,,,,,,,,,,,,,,,,,,,286422,001,2025-07-08_19h07.18.796,SC-IAT,2024.2.4,59.897670820961345,2025-07-08 19h07.42.759535 +0900,
불행하다.jpg,부정,image,slash,2,2,0,,,,,slash,1,0.42503539999597706,None,,,,,,,,,,,,,0,0,0,0,0,2,2,2,,,,,,,,,,,,,37.545011000009254,,,,,,,,,,,,,,,,,,,,,,,,,,,,,,,,,,,,,37.519993200025056,37.545011000009254,37.545011000009254,37.545011000009254,37.545011000009254,37.59268850000808,38.03405990000465,slash,1,0.42503539999597706,None,38.034941500023706,38.196722599997884,38.37488810002105,38.34859200002393,,,,,,,,,,,,,,,,,,,,,,,,,,,,,,,,,,,,,,,,,,,,,,,,,,,286422,001,2025-07-08_19h07.18.796,SC-IAT,2024.2.4,59.897670820961345,2025-07-08 19h07.42.759535 +0900,
죄스럽다.jpg,부정,image,slash,3,3,0,,,,,z,0,0.4872396999853663,None,,,,,,,,,,,,,0,0,0,0,0,3,3,3,,,,,,,,,,,,,38.37488810002105,,,,,,,,,,,,,,,,,,,,,,,,,,,,,,,,,,,,,38.36383750001551,38.44500970002264,38.37488810002105,38.37488810002105,38.37488810002105,38.479657200019574,38.999593200016534,z,0,0.4872396999853663,None,39.002105200022925,39.127618300000904,39.358863900008146,39.299511600023834,,,,,,,,,,,,,,,,,,,,,,,,,,,,,,,,,,,,,,,,,,,,,,,,,,,286422,001,2025-07-08_19h07.18.796,SC-IAT,2024.2.4,59.897670820961345,2025-07-08 19h07.42.759535 +0900,
평화롭다.jpg,긍정,image,z,4,4,0,,,,,slash,0,0.4962078999960795,None,,,,,,,,,,,,,0,0,0,0,0,4,4,4,,,,,,,,,,,,,39.358863900008146,,,,,,,,,,,,,,,,,,,,,,,,,,,,,,,,,,,,,39.341636299999664,39.39227720000781,39.358863900008146,39.358863900008146,39.358863900008146,39.409943100006785,39.93373970000539,slash,0,0.4962078999960795,None,39.93507760000648,40.077988200006075,40.258482900011586,40.234124700014945,,,,,,,,,,,,,,,,,,,,,,,,,,,,,,,,,,,,,,,,,,,,,,,,,,,286422,001,2025-07-08_19h07.18.796,SC-IAT,2024.2.4,59.897670820961345,2025-07-08 19h07.42.759535 +0900,
거북하다.jpg,부정,image,slash,5,5,0,,,,,slash,1,0.40775830001803115,None,,,,,,,,,,,,,0,0,0,0,0,5,5,5,,,,,,,,,,,,,40.258482900011586,,,,,,,,,,,,,,,,,,,,,,,,,,,,,,,,,,,,,40.24871510002413,40.34466850000899,40.258482900011586,40.258482900011586,40.258482900011586,40.393328600010136,40.83620390002034,slash,1,0.40775830001803115,None,40.83843140001409,40.977145400014706,41.17553120001685,41.143696100014495,,,,,,,,,,,,,,,,,,,,,,,,,,,,,,,,,,,,,,,,,,,,,,,,,,,286422,001,2025-07-08_19h07.18.796,SC-IAT,2024.2.4,59.897670820961345,2025-07-08 19h07.42.759535 +0900,
섬뜩하다.jpg,부정,image,slash,6,6,0,,,,,slash,1,0.48149440000997856,None,,,,,,,,,,,,,0,0,0,0,0,6,6,6,,,,,,,,,,,,,41.17553120001685,,,,,,,,,,,,,,,,,,,,,,,,,,,,,,,,,,,,,41.1674865000241,41.226861500006635,41.17553120001685,41.17553120001685,41.17553120001685,41.261278899997706,41.752742800017586,slash,1,0.48149440000997856,None,41.753498900012346,41.878919900016626,42.145374300016556,42.06471450001118,,,,,,,,,,,,,,,,,,,,,,,,,,,,,,,,,,,,,,,,,,,,,,,,,,,286422,001,2025-07-08_19h07.18.796,SC-IAT,2024.2.4,59.897670820961345,2025-07-08 19h07.42.759535 +0900,
역겹다.jpg,부정,image,slash,7,7,0,,,,,z,0,0.46255810000002384,None,,,,,,,,,,,,,0,0,0,0,0,7,7,7,,,,,,,,,,,,,42.145374300016556,,,,,,,,,,,,,,,,,,,,,,,,,,,,,,,,,,,,,42.11707050001132,42.145374300016556,42.145374300016556,42.145374300016556,42.145374300016556,42.21114620001754,42.7023020000197,z,0,0.46255810000002384,None,42.70336120002321,42.825712699996075,43.02734150001197,42.97371230000863,,,,,,,,,,,,,,,,,,,,,,,,,,,,,,,,,,,,,,,,,,,,,,,,,,,286422,001,2025-07-08_19h07.18.796,SC-IAT,2024.2.4,59.897670820961345,2025-07-08 19h07.42.759535 +0900,
흐뭇하다.jpg,긍정,image,z,8,8,0,,,,,z,1,0.3891299999959301,None,,,,,,,,,,,,,0,0,0,0,0,8,8,8,,,,,,,,,,,,,43.02734150001197,,,,,,,,,,,,,,,,,,,,,,,,,,,,,,,,,,,,,43.01291830002447,43.02734150001197,43.02734150001197,43.02734150001197,43.02734150001197,43.09404510000604,43.50679980000132,z,1,0.3891299999959301,None,43.51015840002219,43.625247999996645,43.89346050002496,43.777663500019116,,,,,,,,,,,,,,,,,,,,,,,,,,,,,,,,,,,,,,,,,,,,,,,,,,,286422,001,2025-07-08_19h07.18.796,SC-IAT,2024.2.4,59.897670820961345,2025-07-08 19h07.42.759535 +0900,
즐겁다.jpg,긍정,image,z,9,9,0,,,,,z,1,0.4718647999980021,None,,,,,,,,,,,,,0,0,0,0,0,9,9,9,,,,,,,,,,,,,43.89346050002496,,,,,,,,,,,,,,,,,,,,,,,,,,,,,,,,,,,,,43.875969100015936,43.89346050002496,43.89346050002496,43.89346050002496,43.89346050002496,43.89346050002496,44.3819913000043,z,1,0.4718647999980021,None,44.383231500018155,44.545082299999194,44.759317300020484,44.71147890001885,,,,,,,,,,,,,,,,,,,,,,,,,,,,,,,,,,,,,,,,,,,,,,,,,,,286422,001,2025-07-08_19h07.18.796,SC-IAT,2024.2.4,59.897670820961345,2025-07-08 19h07.42.759535 +0900,
격분하다.jpg,부정,image,slash,10,10,0,,,,,z,0,0.40932980002253316,None,,,,,,,,,,,,,0,0,0,0,0,10,10,10,,,,,,,,,,,,,44.759317300020484,,,,,,,,,,,,,,,,,,,,,,,,,,,,,,,,,,,,,44.745123700005934,44.776133500010474,44.759317300020484,44.759317300020484,44.759317300020484,44.843359799997415,45.28760900002089,z,0,0.40932980002253316,None,45.29050420000567,45.42695540000568,45.62819440002204,45.56638160001603,,,,,,,,,,,,,,,,,,,,,,,,,,,,,,,,,,,,,,,,,,,,,,,,,,,286422,001,2025-07-08_19h07.18.796,SC-IAT,2024.2.4,59.897670820961345,2025-07-08 19h07.42.759535 +0900,
슬프다.jpg,부정,image,slash,11,11,0,,,,,z,0,0.4598933999950532,None,,,,,,,,,,,,,0,0,0,0,0,11,11,11,,,,,,,,,,,,,45.62819440002204,,,,,,,,,,,,,,,,,,,,,,,,,,,,,,,,,,,,,45.60326550001628,45.6625707000203,45.62819440002204,45.62819440002204,45.62819440002204,45.69652270001825,46.185055600013584,z,0,0.4598933999950532,None,46.1861761000182,46.32829030000721,46.56080480001401,46.49561890002224,,,,,,,,,,,,,,,,,,,,,,,,,,,,,,,,,,,,,,,,,,,,,,,,,,,286422,001,2025-07-08_19h07.18.796,SC-IAT,2024.2.4,59.897670820961345,2025-07-08 19h07.42.759535 +0900,
억울하다.jpg,부정,image,slash,12,12,0,,,,,slash,1,0.5342745999805629,None,,,,,,,,,,,,,0,0,0,0,0,12,12,12,,,,,,,,,,,,,46.56080480001401,,,,,,,,,,,,,,,,,,,,,,,,,,,,,,,,,,,,,46.53435180001543,46.59652500000084,46.56080480001401,46.56080480001401,46.56080480001401,46.629569200013066,47.185317499999655,slash,1,0.5342745999805629,None,47.18747160001658,47.32889490001253,47.55984620001982,47.48279609999736,,,,,,,,,,,,,,,,,,,,,,,,,,,,,,,,,,,,,,,,,,,,,,,,,,,286422,001,2025-07-08_19h07.18.796,SC-IAT,2024.2.4,59.897670820961345,2025-07-08 19h07.42.759535 +0900,
암담하다.jpg,부정,image,slash,13,13,0,,,,,slash,1,0.7188152999733575,None,,,,,,,,,,,,,0,0,0,0,0,13,13,13,,,,,,,,,,,,,47.55984620001982,,,,,,,,,,,,,,,,,,,,,,,,,,,,,,,,,,,,,47.527670100011164,47.55984620001982,47.55984620001982,47.55984620001982,47.55984620001982,47.616997900011484,48.36945200001355,slash,1,0.7188152999733575,None,48.370619799999986,48.492034399998374,48.65876310001477,48.63306610001018,,,,,,,,,,,,,,,,,,,,,,,,,,,,,,,,,,,,,,,,,,,,,,,,,,,286422,001,2025-07-08_19h07.18.796,SC-IAT,2024.2.4,59.897670820961345,2025-07-08 19h07.42.759535 +0900,
분노하다.jpg,부정,image,slash,14,14,0,,,,,z,0,0.7100220999855082,None,,,,,,,,,,,,,0,0,0,0,0,14,14,14,,,,,,,,,,,,,48.65876310001477,,,,,,,,,,,,,,,,,,,,,,,,,,,,,,,,,,,,,48.64994010000373,48.6933498000144,48.65876310001477,48.65876310001477,48.65876310001477,48.74317240001983,49.47281390000717,z,0,0.7100220999855082,None,49.4739429000183,49.57622220000485,49.82777490001172,49.742944600002375,,,,,,,,,,,,,,,,,,,,,,,,,,,,,,,,,,,,,,,,,,,,,,,,,,,286422,001,2025-07-08_19h07.18.796,SC-IAT,2024.2.4,59.897670820961345,2025-07-08 19h07.42.759535 +0900,
실망하다.jpg,부정,image,slash,15,15,0,,,,,z,0,0.7967680000001565,None,,,,,,,,,,,,,0,0,0,0,0,15,15,15,,,,,,,,,,,,,49.82777490001172,,,,,,,,,,,,,,,,,,,,,,,,,,,,,,,,,,,,,49.80372600001283,49.82777490001172,49.82777490001172,49.82777490001172,49.82777490001172,49.861551400012104,50.66803830000572,z,0,0.7967680000001565,None,50.66884779999964,50.81014600000344,51.04447120000259,50.94683560001431,,,,,,,,,,,,,,,,,,,,,,,,,,,,,,,,,,,,,,,,,,,,,,,,,,,286422,001,2025-07-08_19h07.18.796,SC-IAT,2024.2.4,59.897670820961345,2025-07-08 19h07.42.759535 +0900,
증오하다.jpg,부정,image,slash,16,16,0,,,,,z,0,0.36073020001640543,None,,,,,,,,,,,,,0,0,0,0,0,16,16,16,,,,,,,,,,,,,51.04447120000259,,,,,,,,,,,,,,,,,,,,,,,,,,,,,,,,,,,,,51.02115430001868,51.04447120000259,51.04447120000259,51.04447120000259,51.04447120000259,51.09369650000008,51.502965000021504,z,0,0.36073020001640543,None,51.5045122000156,51.64634400000796,51.875919400015846,51.81727990001673,,,,,,,,,,,,,,,,,,,,,,,,,,,,,,,,,,,,,,,,,,,,,,,,,,,286422,001,2025-07-08_19h07.18.796,SC-IAT,2024.2.4,59.897670820961345,2025-07-08 19h07.42.759535 +0900,
질색하다.jpg,부정,image,slash,17,17,0,,,,,z,0,0.5029756000149064,None,,,,,,,,,,,,,0,0,0,0,0,17,17,17,,,,,,,,,,,,,51.875919400015846,,,,,,,,,,,,,,,,,,,,,,,,,,,,,,,,,,,,,51.85901040001772,51.8999896000023,51.875919400015846,51.875919400015846,51.875919400015846,51.944256400020095,52.50397000001976,z,0,0.5029756000149064,None,52.50633220002055,52.64493880001828,52.84252679999918,52.8014568000217,,,,,,,,,,,,,,,,,,,,,,,,,,,,,,,,,,,,,,,,,,,,,,,,,,,286422,001,2025-07-08_19h07.18.796,SC-IAT,2024.2.4,59.897670820961345,2025-07-08 19h07.42.759535 +0900,
기쁘다.jpg,긍정,image,z,18,18,0,,,,,z,1,0.37786789998062886,None,,,,,,,,,,,,,0,0,0,0,0,18,18,18,,,,,,,,,,,,,52.84252679999918,,,,,,,,,,,,,,,,,,,,,,,,,,,,,,,,,,,,,52.83250830002362,52.86110470001586,52.84252679999918,52.84252679999918,52.84252679999918,52.91068460000679,53.296806400001515,z,1,0.37786789998062886,None,53.29861250001704,53.40930100000696,53.628675300016766,53.563439300021855,,,,,,,,,,,,,,,,,,,,,,,,,,,,,,,,,,,,,,,,,,,,,,,,,,,286422,001,2025-07-08_19h07.18.796,SC-IAT,2024.2.4,59.897670820961345,2025-07-08 19h07.42.759535 +0900,
자랑스럽다.jpg,긍정,image,z,19,19,0,,,,,slash,0,0.45666649998747744,None,,,,,,,,,,,,,0,0,0,0,0,19,19,19,,,,,,,,,,,,,53.628675300016766,,,,,,,,,,,,,,,,,,,,,,,,,,,,,,,,,,,,,53.604442400013795,53.628675300016766,53.628675300016766,53.628675300016766,53.628675300016766,53.69624700001441,54.18675730001996,slash,0,0.45666649998747744,None,54.1899310000008,54.32872489999863,54.6128717000247,54.49924299999839,,,,,,,,,,,,,,,,,,,,,,,,,,,,,,,,,,,,,,,,,,,,,,,,,,,286422,001,2025-07-08_19h07.18.796,SC-IAT,2024.2.4,59.897670820961345,2025-07-08 19h07.42.759535 +0900,
신나다.jpg,긍정,image,z,20,20,0,,,,,z,1,0.6028967999736778,None,,,,,,,,,,,,,0,0,0,0,0,20,20,20,,,,,,,,,,,,,54.6128717000247,,,,,,,,,,,,,,,,,,,,,,,,,,,,,,,,,,,,,54.58335150001221,54.6128717000247,54.6128717000247,54.6128717000247,54.6128717000247,54.660332200000994,55.28680220001843,z,1,0.6028967999736778,None,55.288397900003474,55.425085700000636,55.644122400000924,55.57635270000901,,,,,,,,,,,,,,,,,,,,,,,,,,,,,,,,,,,,,,,,,,,,,,,,,,,286422,001,2025-07-08_19h07.18.796,SC-IAT,2024.2.4,59.897670820961345,2025-07-08 19h07.42.759535 +0900,
불쾌하다.jpg,부정,image,slash,21,21,0,,,,,z,0,0.5145838000171352,None,,,,,,,,,,,,,0,0,0,0,0,21,21,21,,,,,,,,,,,,,55.644122400000924,,,,,,,,,,,,,,,,,,,,,,,,,,,,,,,,,,,,,55.62148930001422,55.644122400000924,55.644122400000924,55.644122400000924,55.644122400000924,55.71214770001825,56.23850370000582,z,0,0.5145838000171352,None,56.23998810001649,56.378853900008835,56.575961800001096,56.534957900003064,,,,,,,,,,,,,,,,,,,,,,,,,,,,,,,,,,,,,,,,,,,,,,,,,,,286422,001,2025-07-08_19h07.18.796,SC-IAT,2024.2.4,59.897670820961345,2025-07-08 19h07.42.759535 +0900,
매력있다.jpg,긍정,image,z,22,22,0,,,,,slash,0,0.4938939000130631,None,,,,,,,,,,,,,0,0,0,0,0,22,22,22,,,,,,,,,,,,,56.575961800001096,,,,,,,,,,,,,,,,,,,,,,,,,,,,,,,,,,,,,56.56296010001097,56.59287360002054,56.575961800001096,56.575961800001096,56.575961800001096,56.66066480000154,57.18364570001722,slash,0,0.4938939000130631,None,57.18585599999642,57.36088680001558,57.559799900016515,57.50449290001416,,,,,,,,,,,,,,,,,,,,,,,,,,,,,,,,,,,,,,,,,,,,,,,,,,,286422,001,2025-07-08_19h07.18.796,SC-IAT,2024.2.4,59.897670820961345,2025-07-08 19h07.42.759535 +0900,
재미있다.jpg,긍정,image,z,23,23,0,,,,,z,1,0.4647074000095017,None,,,,,,,,,,,,,0,0,0,0,0,23,23,23,,,,,,,,,,,,,57.559799900016515,,,,,,,,,,,,,,,,,,,,,,,,,,,,,,,,,,,,,57.55023500000243,57.559799900016515,57.559799900016515,57.559799900016515,57.559799900016515,57.64396120002493,58.13754660001723,z,1,0.4647074000095017,None,58.13985190002131,58.29612050001742,58.5623691000219,58.450150600023335,,,,,,,,,,,,,,,,,,,,,,,,,,,,,,,,,,,,,,,,,,,,,,,,,,,286422,001,2025-07-08_19h07.18.796,SC-IAT,2024.2.4,59.897670820961345,2025-07-08 19h07.42.759535 +0900,
,,,,0,0,0,,,,,,,,,,,,,,,,,,,,,0,0,0,0,,,,,,,,,,,,,,,,,,,,,,,,,,,,,,,,,,,,,,,,,,,,,,,,,,,,,,,,,,,,,,,,,,,,,,,,,,,,,,,,,,,,,,,,,,,,,,,,,,,,,,,,,,,,,,,,,,,,,,,286422,001,2025-07-08_19h07.18.796,SC-IAT,2024.2.4,59.897670820961345,2025-07-08 19h07.42.759535 +0900,
경멸하다.jpg,부정,image,slash,0,0,0,,,,,slash,1,0.7499482999846805,None,,,,,,,,,,,,,1,0,1,0,0,0,0,0,,,,,,,,,,,,,58.5623691000219,,,,,,,,,,,,,,,,,,,,,,,,,,,,,,,,,,,58.49807630002033,58.49895400000969,58.53766140001244,58.59600190000492,58.5623691000219,58.5623691000219,58.5623691000219,58.64383610000368,59.40677090000827,slash,1,0.7499482999846805,None,59.407966200000374,59.52575470000738,59.70913719999953,59.66937560000224,,,,,,,,,,,,,,,,,,,,,,,,,,,,,,,,,,,,,,,,,,,,,,,,,,,286422,001,2025-07-08_19h07.18.796,SC-IAT,2024.2.4,59.897670820961345,2025-07-08 19h07.42.759535 +0900,
끔찍하다.jpg,부정,image,slash,1,1,0,,,,,z,0,0.606282300024759,None,,,,,,,,,,,,,1,0,1,0,0,1,1,1,,,,,,,,,,,,,59.70913719999953,,,,,,,,,,,,,,,,,,,,,,,,,,,,,,,,,,,,,59.69157240001368,59.74342460001935,59.70913719999953,59.70913719999953,59.70913719999953,59.7940360000066,60.41901179999695,z,0,0.606282300024759,None,60.42303740000352,60.54289810001501,60.726312100014184,60.685213400021894,,,,,,,,,,,,,,,,,,,,,,,,,,,,,,,,,,,,,,,,,,,,,,,,,,,286422,001,2025-07-08_19h07.18.796,SC-IAT,2024.2.4,59.897670820961345,2025-07-08 19h07.42.759535 +0900,
자랑스럽다.jpg,긍정,image,z,2,2,0,,,,,slash,0,0.8400267999968491,None,,,,,,,,,,,,,1,0,1,0,0,2,2,2,,,,,,,,,,,,,60.726312100014184,,,,,,,,,,,,,,,,,,,,,,,,,,,,,,,,,,,,,60.709239600022556,60.75972620001994,60.726312100014184,60.726312100014184,60.726312100014184,60.80950880001183,61.669126000022516,slash,0,0.8400267999968491,None,61.67878390001715,61.79237950002425,61.99273300002096,61.95402420000755,,,,,,,,,,,,,,,,,,,,,,,,,,,,,,,,,,,,,,,,,,,,,,,,,,,286422,001,2025-07-08_19h07.18.796,SC-IAT,2024.2.4,59.897670820961345,2025-07-08 19h07.42.759535 +0900,
환희하다.jpg,긍정,image,z,3,3,0,,,,,z,1,0.5408182000101078,None,,,,,,,,,,,,,1,0,1,0,0,3,3,3,,,,,,,,,,,,,61.99273300002096,,,,,,,,,,,,,,,,,,,,,,,,,,,,,,,,,,,,,61.97583609999856,62.01029760000529,61.99273300002096,61.99273300002096,61.99273300002096,62.06170750001911,62.620080799999414,z,1,0.5408182000101078,None,62.6211900000053,62.742825299996184,62.925770400004694,62.885501800017664,,,,,,,,,,,,,,,,,,,,,,,,,,,,,,,,,,,,,,,,,,,,,,,,,,,286422,001,2025-07-08_19h07.18.796,SC-IAT,2024.2.4,59.897670820961345,2025-07-08 19h07.42.759535 +0900,
평온하다.jpg,긍정,image,z,4,4,0,,,,,slash,0,0.4713728000060655,None,,,,,,,,,,,,,1,0,1,0,0,4,4,4,,,,,,,,,,,,,62.925770400004694,,,,,,,,,,,,,,,,,,,,,,,,,,,,,,,,,,,,,62.90953560001799,62.95948330001556,62.925770400004694,62.925770400004694,62.925770400004694,63.01064690001658,63.49173570002313,slash,0,0.4713728000060655,None,63.49347320001107,63.60935800001607,63.809575599996606,63.76869270001771,,,,,,,,,,,,,,,,,,,,,,,,,,,,,,,,,,,,,,,,,,,,,,,,,,,286422,001,2025-07-08_19h07.18.796,SC-IAT,2024.2.4,59.897670820961345,2025-07-08 19h07.42.759535 +0900,
편안하다.jpg,긍정,image,z,5,5,0,,,,,slash,0,0.49280010000802577,None,,,,,,,,,,,,,1,0,1,0,0,5,5,5,,,,,,,,,,,,,63.809575599996606,,,,,,,,,,,,,,,,,,,,,,,,,,,,,,,,,,,,,63.79220950001036,63.842811800015625,63.809575599996606,63.809575599996606,63.809575599996606,63.892614600015804,64.39959880002425,slash,0,0.49280010000802577,None,64.4001958000008,64.52595030001248,64.7090369000216,64.66821370000253,,,,,,,,,,,,,,,,,,,,,,,,,,,,,,,,,,,,,,,,,,,,,,,,,,,286422,001,2025-07-08_19h07.18.796,SC-IAT,2024.2.4,59.897670820961345,2025-07-08 19h07.42.759535 +0900,
역겹다.jpg,부정,image,slash,6,6,0,,,,,slash,1,0.6582874000014272,None,,,,,,,,,,,,,1,0,1,0,0,6,6,6,,,,,,,,,,,,,64.7090369000216,,,,,,,,,,,,,,,,,,,,,,,,,,,,,,,,,,,,,64.69467040000018,64.7270131999976,64.7090369000216,64.7090369000216,64.7090369000216,64.79236560000572,65.47040109999944,slash,1,0.6582874000014272,None,65.47236420001718,65.57728860000498,65.77578580001136,65.73467490001349,,,,,,,,,,,,,,,,,,,,,,,,,,,,,,,,,,,,,,,,,,,,,,,,,,,286422,001,2025-07-08_19h07.18.796,SC-IAT,2024.2.4,59.897670820961345,2025-07-08 19h07.42.759535 +0900,
신나다.jpg,긍정,image,z,7,7,0,,,,,z,1,0.4399132000107784,None,,,,,,,,,,,,,1,0,1,0,0,7,7,7,,,,,,,,,,,,,65.77578580001136,,,,,,,,,,,,,,,,,,,,,,,,,,,,,,,,,,,,,65.76205410002149,65.79505320001044,65.77578580001136,65.77578580001136,65.77578580001136,65.86096340001677,66.31952320001437,z,1,0.4399132000107784,None,66.3206517000217,66.44245500001125,66.62591360000079,66.58420880002086,,,,,,,,,,,,,,,,,,,,,,,,,,,,,,,,,,,,,,,,,,,,,,,,,,,286422,001,2025-07-08_19h07.18.796,SC-IAT,2024.2.4,59.897670820961345,2025-07-08 19h07.42.759535 +0900,
만족하다.jpg,긍정,image,z,8,8,0,,,,,z,1,0.7424905000079889,None,,,,,,,,,,,,,1,0,1,0,0,8,8,8,,,,,,,,,,,,,66.62591360000079,,,,,,,,,,,,,,,,,,,,,,,,,,,,,,,,,,,,,66.6027987000125,66.64362230000552,66.62591360000079,66.62591360000079,66.62591360000079,66.6934251000057,67.4496040000231,z,1,0.7424905000079889,None,67.45021840001573,67.59439740001108,67.84272200000123,67.74982650001766,,,,,,,,,,,,,,,,,,,,,,,,,,,,,,,,,,,,,,,,,,,,,,,,,,,286422,001,2025-07-08_19h07.18.796,SC-IAT,2024.2.4,59.897670820961345,2025-07-08 19h07.42.759535 +0900,
drug4.jpg,마약,image,z,9,9,0,,,,,z,1,0.6923459999961779,None,,,,,,,,,,,,,1,0,1,0,0,9,9,9,,,,,,,,,,,,,67.84272200000123,,,,,,,,,,,,,,,,,,,,,,,,,,,,,,,,,,,,,67.82673120000982,67.84272200000123,67.84272200000123,67.84272200000123,67.84272200000123,67.86333880000166,68.55926219999674,z,1,0.6923459999961779,None,68.56067120001535,68.69441530000768,68.91125750000356,68.84871370001929,,,,,,,,,,,,,,,,,,,,,,,,,,,,,,,,,,,,,,,,,,,,,,,,,,,286422,001,2025-07-08_19h07.18.796,SC-IAT,2024.2.4,59.897670820961345,2025-07-08 19h07.42.759535 +0900,
애정하다.jpg,긍정,image,z,10,10,0,,,,,z,1,1.0178310000046622,None,,,,,,,,,,,,,1,0,1,0,0,10,10,10,,,,,,,,,,,,,68.91125750000356,,,,,,,,,,,,,,,,,,,,,,,,,,,,,,,,,,,,,68.8890623000043,68.9462152000051,68.91125750000356,68.91125750000356,68.91125750000356,68.98083130002487,70.02414039999712,z,1,1.0178310000046622,None,70.02625799999805,70.14393730001757,70.3610963000101,70.28015080001205,,,,,,,,,,,,,,,,,,,,,,,,,,,,,,,,,,,,,,,,,,,,,,,,,,,286422,001,2025-07-08_19h07.18.796,SC-IAT,2024.2.4,59.897670820961345,2025-07-08 19h07.42.759535 +0900,
질색하다.jpg,부정,image,slash,11,11,0,,,,,z,0,0.67844150000019,None,,,,,,,,,,,,,1,0,1,0,0,11,11,11,,,,,,,,,,,,,70.3610963000101,,,,,,,,,,,,,,,,,,,,,,,,,,,,,,,,,,,,,70.32766300000367,70.3610963000101,70.3610963000101,70.3610963000101,70.3610963000101,70.41102850000607,71.10488640001859,z,0,0.67844150000019,None,71.10762390002492,71.22582170000533,71.44547140001669,71.37880080001196,,,,,,,,,,,,,,,,,,,,,,,,,,,,,,,,,,,,,,,,,,,,,,,,,,,286422,001,2025-07-08_19h07.18.796,SC-IAT,2024.2.4,59.897670820961345,2025-07-08 19h07.42.759535 +0900,
거북하다.jpg,부정,image,slash,12,12,0,,,,,slash,1,0.5624826999846846,None,,,,,,,,,,,,,1,0,1,0,0,12,12,12,,,,,,,,,,,,,71.44547140001669,,,,,,,,,,,,,,,,,,,,,,,,,,,,,,,,,,,,,71.41993280002498,71.44547140001669,71.44547140001669,71.44547140001669,71.44547140001669,71.49446570000146,72.09797309999703,slash,1,0.5624826999846846,None,72.09943709999789,72.26130830001784,72.47641730000032,72.39930540000205,,,,,,,,,,,,,,,,,,,,,,,,,,,,,,,,,,,,,,,,,,,,,,,,,,,286422,001,2025-07-08_19h07.18.796,SC-IAT,2024.2.4,59.897670820961345,2025-07-08 19h07.42.759535 +0900,
좌절하다.jpg,부정,image,slash,13,13,0,,,,,slash,1,0.6038705000246409,None,,,,,,,,,,,,,1,0,1,0,0,13,13,13,,,,,,,,,,,,,72.47641730000032,,,,,,,,,,,,,,,,,,,,,,,,,,,,,,,,,,,,,72.44736660001217,72.47641730000032,72.47641730000032,72.47641730000032,72.47641730000032,72.51171600000816,73.15326859999914,slash,1,0.6038705000246409,None,73.15558340001735,73.27599670001655,73.49691660000826,73.41931630001636,,,,,,,,,,,,,,,,,,,,,,,,,,,,,,,,,,,,,,,,,,,,,,,,,,,286422,001,2025-07-08_19h07.18.796,SC-IAT,2024.2.4,59.897670820961345,2025-07-08 19h07.42.759535 +0900,
괴롭다.jpg,부정,image,slash,14,14,0,,,,,z,0,0.4344140999892261,None,,,,,,,,,,,,,1,0,1,0,0,14,14,14,,,,,,,,,,,,,73.49691660000826,,,,,,,,,,,,,,,,,,,,,,,,,,,,,,,,,,,,,73.46808230000897,73.49691660000826,73.49691660000826,73.49691660000826,73.49691660000826,73.54409999999916,73.99259200002416,z,0,0.4344140999892261,None,73.99467390001519,74.11348130000988,74.39560280001024,74.28057260002242,,,,,,,,,,,,,,,,,,,,,,,,,,,,,,,,,,,,,,,,,,,,,,,,,,,286422,001,2025-07-08_19h07.18.796,SC-IAT,2024.2.4,59.897670820961345,2025-07-08 19h07.42.759535 +0900,
섬뜩하다.jpg,부정,image,slash,15,15,0,,,,,z,0,0.5591133999987505,None,,,,,,,,,,,,,1,0,1,0,0,15,15,15,,,,,,,,,,,,,74.39560280001024,,,,,,,,,,,,,,,,,,,,,,,,,,,,,,,,,,,,,74.36876620000112,74.39560280001024,74.39560280001024,74.39560280001024,74.39560280001024,74.44538499999908,75.02033490000758,z,0,0.5591133999987505,None,75.02181790000759,75.16140550002456,75.41150310001103,75.335728200007,,,,,,,,,,,,,,,,,,,,,,,,,,,,,,,,,,,,,,,,,,,,,,,,,,,286422,001,2025-07-08_19h07.18.796,SC-IAT,2024.2.4,59.897670820961345,2025-07-08 19h07.42.759535 +0900,
기쁘다.jpg,긍정,image,z,16,16,0,,,,,z,1,0.4154782999830786,None,,,,,,,,,,,,,1,0,1,0,0,16,16,16,,,,,,,,,,,,,75.41150310001103,,,,,,,,,,,,,,,,,,,,,,,,,,,,,,,,,,,,,75.38400260001072,75.41150310001103,75.41150310001103,75.41150310001103,75.41150310001103,75.44624070002465,75.8688347999996,z,1,0.4154782999830786,None,75.87029910000274,75.99258230000851,76.19302040000912,76.15425230000983,,,,,,,,,,,,,,,,,,,,,,,,,,,,,,,,,,,,,,,,,,,,,,,,,,,286422,001,2025-07-08_19h07.18.796,SC-IAT,2024.2.4,59.897670820961345,2025-07-08 19h07.42.759535 +0900,
행복하다.jpg,긍정,image,z,17,17,0,,,,,z,1,0.4241056999890134,None,,,,,,,,,,,,,1,0,1,0,0,17,17,17,,,,,,,,,,,,,76.19302040000912,,,,,,,,,,,,,,,,,,,,,,,,,,,,,,,,,,,,,76.1819837000221,76.22699470000225,76.19302040000912,76.19302040000912,76.19302040000912,76.29320430001826,76.74091350001981,z,1,0.4241056999890134,None,76.74393580001197,76.85912239999743,77.12775610000244,77.02903130001505,,,,,,,,,,,,,,,,,,,,,,,,,,,,,,,,,,,,,,,,,,,,,,,,,,,286422,001,2025-07-08_19h07.18.796,SC-IAT,2024.2.4,59.897670820961345,2025-07-08 19h07.42.759535 +0900,
drug1.jpg,마약,image,z,18,18,0,,,,,z,1,0.4353246999962721,None,,,,,,,,,,,,,1,0,1,0,0,18,18,18,,,,,,,,,,,,,77.12775610000244,,,,,,,,,,,,,,,,,,,,,,,,,,,,,,,,,,,,,77.10140450001927,77.12775610000244,77.12775610000244,77.12775610000244,77.12775610000244,77.16143840001314,77.59932390000904,z,1,0.4353246999962721,None,77.60060200002044,77.74591540000984,77.9627196000074,77.88330780001706,,,,,,,,,,,,,,,,,,,,,,,,,,,,,,,,,,,,,,,,,,,,,,,,,,,286422,001,2025-07-08_19h07.18.796,SC-IAT,2024.2.4,59.897670820961345,2025-07-08 19h07.42.759535 +0900,
실망하다.jpg,부정,image,slash,19,19,0,,,,,slash,1,0.450871199980611,None,,,,,,,,,,,,,1,0,1,0,0,19,19,19,,,,,,,,,,,,,77.9627196000074,,,,,,,,,,,,,,,,,,,,,,,,,,,,,,,,,,,,,77.9353523000027,77.9627196000074,77.9627196000074,77.9627196000074,77.9627196000074,78.02931780001381,78.50286220002454,slash,1,0.450871199980611,None,78.50420860000304,78.66178640001453,78.92793400000664,78.8299767000135,,,,,,,,,,,,,,,,,,,,,,,,,,,,,,,,,,,,,,,,,,,,,,,,,,,286422,001,2025-07-08_19h07.18.796,SC-IAT,2024.2.4,59.897670820961345,2025-07-08 19h07.42.759535 +0900,
불쾌하다.jpg,부정,image,slash,20,20,0,,,,,z,0,0.4854400999902282,None,,,,,,,,,,,,,1,0,1,0,0,20,20,20,,,,,,,,,,,,,78.92793400000664,,,,,,,,,,,,,,,,,,,,,,,,,,,,,,,,,,,,,78.91267810002319,78.92793400000664,78.92793400000664,78.92793400000664,78.92793400000664,78.9602184999967,79.45071090001147,z,0,0.4854400999902282,None,79.45299530000193,79.57610710000154,79.74239330002456,79.7154471000249,,,,,,,,,,,,,,,,,,,,,,,,,,,,,,,,,,,,,,,,,,,,,,,,,,,286422,001,2025-07-08_19h07.18.796,SC-IAT,2024.2.4,59.897670820961345,2025-07-08 19h07.42.759535 +0900,
평화롭다.jpg,긍정,image,z,21,21,0,,,,,z,1,0.4737717999960296,None,,,,,,,,,,,,,1,0,1,0,0,21,21,21,,,,,,,,,,,,,79.74239330002456,,,,,,,,,,,,,,,,,,,,,,,,,,,,,,,,,,,,,79.73105780000333,79.77667120000115,79.74239330002456,79.74239330002456,79.74239330002456,79.87879440002143,80.38414420001209,z,1,0.4737717999960296,None,80.3855501000071,80.51083710000967,80.71136860002298,80.6486173000012,,,,,,,,,,,,,,,,,,,,,,,,,,,,,,,,,,,,,,,,,,,,,,,,,,,286422,001,2025-07-08_19h07.18.796,SC-IAT,2024.2.4,59.897670820961345,2025-07-08 19h07.42.759535 +0900,
불만족하다.jpg,부정,image,slash,22,22,0,,,,,slash,1,0.4298043000162579,None,,,,,,,,,,,,,1,0,1,0,0,22,22,22,,,,,,,,,,,,,80.71136860002298,,,,,,,,,,,,,,,,,,,,,,,,,,,,,,,,,,,,,80.68635520001408,80.76193680000142,80.71136860002298,80.71136860002298,80.71136860002298,80.81127490001381,81.28267580000102,slash,1,0.4298043000162579,None,81.28428819999681,81.46368149999762,81.69442060001893,81.6155697000213,,,,,,,,,,,,,,,,,,,,,,,,,,,,,,,,,,,,,,,,,,,,,,,,,,,286422,001,2025-07-08_19h07.18.796,SC-IAT,2024.2.4,59.897670820961345,2025-07-08 19h07.42.759535 +0900,
암담하다.jpg,부정,image,slash,23,23,0,,,,,z,0,0.4474686000030488,None,,,,,,,,,,,,,1,0,1,0,0,23,23,23,,,,,,,,,,,,,81.69442060001893,,,,,,,,,,,,,,,,,,,,,,,,,,,,,,,,,,,,,81.68220070001553,81.69442060001893,81.69442060001893,81.69442060001893,81.69442060001893,81.76041380001698,82.25047690002248,z,0,0.4474686000030488,None,82.25194060002104,82.39380770002026,82.74386270000832,82.5402837000147,,,,,,,,,,,,,,,,,,,,,,,,,,,,,,,,,,,,,,,,,,,,,,,,,,,286422,001,2025-07-08_19h07.18.796,SC-IAT,2024.2.4,59.897670820961345,2025-07-08 19h07.42.759535 +0900,
,,,,1,0,1,,,,,,,,,,,,,,,,,,,,,1,0,1,0,,,,,,,,,,,,,,,,,,,,,,,,,,,,,,,,,,,,,,,,,,,,,,,,,,,,,,,,,,,,,,,,,,,,,,,,,,,,,,,,,,,,,,,,,,,,,,,,,,,,,,,,,,,,,,,,,,,,,,,286422,001,2025-07-08_19h07.18.796,SC-IAT,2024.2.4,59.897670820961345,2025-07-08 19h07.42.759535 +0900,
역겹다.jpg,부정,image,slash,0,0,0,,,,,slash,1,0.3920778000028804,None,,,,,,,,,,,,,2,0,2,0,0,0,0,0,,,,,,,,,,,,,82.74386270000832,,,,,,,,,,,,,,,,,,,,,,,,,,,,,,,,,,,82.64801299999817,82.64976780000143,82.72406420001062,82.74386270000832,82.74386270000832,82.74386270000832,82.74386270000832,82.77660150002339,83.19575280000572,slash,1,0.3920778000028804,None,83.19743739999831,83.36072570001124,83.57820710001397,83.5123106999963,,,,,,,,,,,,,,,,,,,,,,,,,,,,,,,,,,,,,,,,,,,,,,,,,,,286422,001,2025-07-08_19h07.18.796,SC-IAT,2024.2.4,59.897670820961345,2025-07-08 19h07.42.759535 +0900,
drug2.jpg,마약,image,z,1,1,0,,,,,slash,0,0.4395694999839179,None,,,,,,,,,,,,,2,0,2,0,0,1,1,1,,,,,,,,,,,,,83.57820710001397,,,,,,,,,,,,,,,,,,,,,,,,,,,,,,,,,,,,,83.55354100000113,83.57820710001397,83.57820710001397,83.57820710001397,83.57820710001397,83.61349000001792,84.10166480002226,slash,0,0.4395694999839179,None,84.10459740000078,84.2281353000144,84.44381170000997,84.40085259999614,,,,,,,,,,,,,,,,,,,,,,,,,,,,,,,,,,,,,,,,,,,,,,,,,,,286422,001,2025-07-08_19h07.18.796,SC-IAT,2024.2.4,59.897670820961345,2025-07-08 19h07.42.759535 +0900,
유쾌하다.jpg,긍정,image,z,2,2,0,,,,,slash,0,0.36989370000083,None,,,,,,,,,,,,,2,0,2,0,0,2,2,2,,,,,,,,,,,,,84.44381170000997,,,,,,,,,,,,,,,,,,,,,,,,,,,,,,,,,,,,,84.42774000001373,84.48059800002375,84.44381170000997,84.44381170000997,84.44381170000997,84.54491160000907,84.9333045000094,slash,0,0.36989370000083,None,84.93600899999728,85.06137640000088,85.29751170001691,85.21991760001401,,,,,,,,,,,,,,,,,,,,,,,,,,,,,,,,,,,,,,,,,,,,,,,,,,,286422,001,2025-07-08_19h07.18.796,SC-IAT,2024.2.4,59.897670820961345,2025-07-08 19h07.42.759535 +0900,
drug3.jpg,마약,image,z,3,3,0,,,,,z,1,0.468175699992571,None,,,,,,,,,,,,,2,0,2,0,0,3,3,3,,,,,,,,,,,,,85.29751170001691,,,,,,,,,,,,,,,,,,,,,,,,,,,,,,,,,,,,,85.26192070002435,85.34387620000052,85.29751170001691,85.29751170001691,85.29751170001691,85.34387620000052,85.83312070000102,z,1,0.468175699992571,None,85.83463379999739,85.96079890002147,86.176726900012,86.10387770002126,,,,,,,,,,,,,,,,,,,,,,,,,,,,,,,,,,,,,,,,,,,,,,,,,,,286422,001,2025-07-08_19h07.18.796,SC-IAT,2024.2.4,59.897670820961345,2025-07-08 19h07.42.759535 +0900,
질색하다.jpg,부정,image,slash,4,4,0,,,,,slash,1,0.47153809998417273,None,,,,,,,,,,,,,2,0,2,0,0,4,4,4,,,,,,,,,,,,,86.176726900012,,,,,,,,,,,,,,,,,,,,,,,,,,,,,,,,,,,,,86.1508628000156,86.176726900012,86.176726900012,86.176726900012,86.176726900012,86.2434858000197,86.76790639999672,slash,1,0.47153809998417273,None,86.7702068000217,86.89287150002201,87.0763662000245,87.03376520000165,,,,,,,,,,,,,,,,,,,,,,,,,,,,,,,,,,,,,,,,,,,,,,,,,,,286422,001,2025-07-08_19h07.18.796,SC-IAT,2024.2.4,59.897670820961345,2025-07-08 19h07.42.759535 +0900,
사랑스럽다.jpg,긍정,image,z,5,5,0,,,,,slash,0,0.4940776999865193,None,,,,,,,,,,,,,2,0,2,0,0,5,5,5,,,,,,,,,,,,,87.0763662000245,,,,,,,,,,,,,,,,,,,,,,,,,,,,,,,,,,,,,87.0559889000142,87.09441630000947,87.0763662000245,87.0763662000245,87.0763662000245,87.14427560000331,87.65400420001242,slash,0,0.4940776999865193,None,87.65474910000921,87.82882570000947,88.07738150001387,88.01260070002172,,,,,,,,,,,,,,,,,,,,,,,,,,,,,,,,,,,,,,,,,,,,,,,,,,,286422,001,2025-07-08_19h07.18.796,SC-IAT,2024.2.4,59.897670820961345,2025-07-08 19h07.42.759535 +0900,
상쾌하다.jpg ,긍정,image,z,6,6,0,,,,,slash,0,0.4681274000031408,None,,,,,,,,,,,,,2,0,2,0,0,6,6,6,,,,,,,,,,,,,88.07738150001387,,,,,,,,,,,,,,,,,,,,,,,,,,,,,,,,,,,,,88.05522870001732,88.07738150001387,88.07738150001387,88.07738150001387,88.07738150001387,88.16181920000236,88.65119790000608,slash,0,0.4681274000031408,None,88.65201020002132,88.81190550001338,89.07981070000096,88.98333450002247,,,,,,,,,,,,,,,,,,,,,,,,,,,,,,,,,,,,,,,,,,,,,,,,,,,286422,001,2025-07-08_19h07.18.796,SC-IAT,2024.2.4,59.897670820961345,2025-07-08 19h07.42.759535 +0900,
행복하다.jpg,긍정,image,z,7,7,0,,,,,z,1,0.5253366999968421,None,,,,,,,,,,,,,2,0,2,0,0,7,7,7,,,,,,,,,,,,,89.07981070000096,,,,,,,,,,,,,,,,,,,,,,,,,,,,,,,,,,,,,89.04606190000777,89.07981070000096,89.07981070000096,89.07981070000096,89.07981070000096,89.11407850001706,89.6534329999995,z,1,0.5253366999968421,None,89.65449850002187,89.77662469999632,89.99599820000003,89.92335220001405,,,,,,,,,,,,,,,,,,,,,,,,,,,,,,,,,,,,,,,,,,,,,,,,,,,286422,001,2025-07-08_19h07.18.796,SC-IAT,2024.2.4,59.897670820961345,2025-07-08 19h07.42.759535 +0900,
좌절하다.jpg,부정,image,slash,8,8,0,,,,,slash,1,0.527078100014478,None,,,,,,,,,,,,,2,0,2,0,0,8,8,8,,,,,,,,,,,,,89.99599820000003,,,,,,,,,,,,,,,,,,,,,,,,,,,,,,,,,,,,,89.96584089999669,89.99599820000003,89.99599820000003,89.99599820000003,89.99599820000003,90.02990470000077,90.58401120000053,slash,1,0.527078100014478,None,90.59785890000057,90.71098760000314,90.92633980000392,90.86663750000298,,,,,,,,,,,,,,,,,,,,,,,,,,,,,,,,,,,,,,,,,,,,,,,,,,,286422,001,2025-07-08_19h07.18.796,SC-IAT,2024.2.4,59.897670820961345,2025-07-08 19h07.42.759535 +0900,
신나다.jpg,긍정,image,z,9,9,0,,,,,slash,0,0.7494740999827627,None,,,,,,,,,,,,,2,0,2,0,0,9,9,9,,,,,,,,,,,,,90.92633980000392,,,,,,,,,,,,,,,,,,,,,,,,,,,,,,,,,,,,,90.91540680002072,90.92633980000392,90.92633980000392,90.92633980000392,90.92633980000392,90.97835869999835,91.75008480000542,slash,0,0.7494740999827627,None,91.75111040001502,91.89551850000862,92.12724480000907,92.06852240001899,,,,,,,,,,,,,,,,,,,,,,,,,,,,,,,,,,,,,,,,,,,,,,,,,,,286422,001,2025-07-08_19h07.18.796,SC-IAT,2024.2.4,59.897670820961345,2025-07-08 19h07.42.759535 +0900,
거북하다.jpg,부정,image,slash,10,10,0,,,,,z,0,0.4955406000080984,None,,,,,,,,,,,,,2,0,2,0,0,10,10,10,,,,,,,,,,,,,92.12724480000907,,,,,,,,,,,,,,,,,,,,,,,,,,,,,,,,,,,,,92.1108482000127,92.16057140001794,92.12724480000907,92.12724480000907,92.12724480000907,92.19412369999918,92.70173310002428,z,0,0.4955406000080984,None,92.7168489000178,92.86218570001074,93.05944300000556,93.02494920001482,,,,,,,,,,,,,,,,,,,,,,,,,,,,,,,,,,,,,,,,,,,,,,,,,,,286422,001,2025-07-08_19h07.18.796,SC-IAT,2024.2.4,59.897670820961345,2025-07-08 19h07.42.759535 +0900,
분노하다.jpg,부정,image,slash,11,11,0,,,,,z,0,0.5363838000048418,None,,,,,,,,,,,,,2,0,2,0,0,11,11,11,,,,,,,,,,,,,93.05944300000556,,,,,,,,,,,,,,,,,,,,,,,,,,,,,,,,,,,,,93.04244300001301,93.07830570000806,93.05944300000556,93.05944300000556,93.05944300000556,93.14371060000849,93.7190082000161,z,0,0.5363838000048418,None,93.72047400000156,93.86381050001364,94.06426750001265,94.00526520001586,,,,,,,,,,,,,,,,,,,,,,,,,,,,,,,,,,,,,,,,,,,,,,,,,,,286422,001,2025-07-08_19h07.18.796,SC-IAT,2024.2.4,59.897670820961345,2025-07-08 19h07.42.759535 +0900,
재미있다.jpg,긍정,image,z,12,12,0,,,,,slash,0,0.5720778999966569,None,,,,,,,,,,,,,2,0,2,0,0,12,12,12,,,,,,,,,,,,,94.06426750001265,,,,,,,,,,,,,,,,,,,,,,,,,,,,,,,,,,,,,94.04365740000503,94.1109297000221,94.06426750001265,94.06426750001265,94.06426750001265,94.13144910000847,94.73270160000538,slash,0,0.5720778999966569,None,94.73488190001808,94.87935650002328,95.09669150001719,95.03138210001634,,,,,,,,,,,,,,,,,,,,,,,,,,,,,,,,,,,,,,,,,,,,,,,,,,,286422,001,2025-07-08_19h07.18.796,SC-IAT,2024.2.4,59.897670820961345,2025-07-08 19h07.42.759535 +0900,
화나다.jpg,부정,image,slash,13,13,0,,,,,slash,1,1.4025574999977835,None,,,,,,,,,,,,,2,0,2,0,0,13,13,13,,,,,,,,,,,,,95.09669150001719,,,,,,,,,,,,,,,,,,,,,,,,,,,,,,,,,,,,,95.0728431000025,95.14554630001658,95.09669150001719,95.09669150001719,95.09669150001719,95.17977240000619,96.60747909999918,slash,1,1.4025574999977835,None,96.60850110001047,96.76198999999906,96.996200100024,96.93134950002423,,,,,,,,,,,,,,,,,,,,,,,,,,,,,,,,,,,,,,,,,,,,,,,,,,,286422,001,2025-07-08_19h07.18.796,SC-IAT,2024.2.4,59.897670820961345,2025-07-08 19h07.42.759535 +0900,
drug7.jpg,마약,image,z,14,14,0,,,,,z,1,0.6125301999854855,None,,,,,,,,,,,,,2,0,2,0,0,14,14,14,,,,,,,,,,,,,96.996200100024,,,,,,,,,,,,,,,,,,,,,,,,,,,,,,,,,,,,,96.97129710001172,97.04363719999674,96.996200100024,96.996200100024,96.996200100024,97.07721050002147,97.70366480000666,z,1,0.6125301999854855,None,97.7043731000158,97.82711770001333,98.04360580001958,97.98800860001938,,,,,,,,,,,,,,,,,,,,,,,,,,,,,,,,,,,,,,,,,,,,,,,,,,,286422,001,2025-07-08_19h07.18.796,SC-IAT,2024.2.4,59.897670820961345,2025-07-08 19h07.42.759535 +0900,
환희하다.jpg,긍정,image,z,15,15,0,,,,,z,1,0.5827169000112917,None,,,,,,,,,,,,,2,0,2,0,0,15,15,15,,,,,,,,,,,,,98.04360580001958,,,,,,,,,,,,,,,,,,,,,,,,,,,,,,,,,,,,,98.02892680000514,98.04360580001958,98.04360580001958,98.04360580001958,98.04360580001958,98.09461860000738,98.71955110001727,z,1,0.5827169000112917,None,98.72102670001914,98.86413020000327,99.1267538999964,99.0359961000213,,,,,,,,,,,,,,,,,,,,,,,,,,,,,,,,,,,,,,,,,,,,,,,,,,,286422,001,2025-07-08_19h07.18.796,SC-IAT,2024.2.4,59.897670820961345,2025-07-08 19h07.42.759535 +0900,
뿌듯하다.jpg,긍정,image,z,16,16,0,,,,,z,1,0.4265099999902304,None,,,,,,,,,,,,,2,0,2,0,0,16,16,16,,,,,,,,,,,,,99.1267538999964,,,,,,,,,,,,,,,,,,,,,,,,,,,,,,,,,,,,,99.11551840000902,99.1267538999964,99.1267538999964,99.1267538999964,99.1267538999964,99.14419910000288,99.58199980002246,z,1,0.4265099999902304,None,99.58439709999948,99.72780950000742,99.91026070000953,99.86752790000173,,,,,,,,,,,,,,,,,,,,,,,,,,,,,,,,,,,,,,,,,,,,,,,,,,,286422,001,2025-07-08_19h07.18.796,SC-IAT,2024.2.4,59.897670820961345,2025-07-08 19h07.42.759535 +0900,
기쁘다.jpg,긍정,image,z,17,17,0,,,,,z,1,0.569336899992777,None,,,,,,,,,,,,,2,0,2,0,0,17,17,17,,,,,,,,,,,,,99.91026070000953,,,,,,,,,,,,,,,,,,,,,,,,,,,,,,,,,,,,,99.88758940002299,99.94350770002347,99.91026070000953,99.91026070000953,99.91026070000953,99.99398490000749,100.59265880001476,z,1,0.569336899992777,None,100.59414530001231,100.74596610001754,100.9430432000081,100.90140270002303,,,,,,,,,,,,,,,,,,,,,,,,,,,,,,,,,,,,,,,,,,,,,,,,,,,286422,001,2025-07-08_19h07.18.796,SC-IAT,2024.2.4,59.897670820961345,2025-07-08 19h07.42.759535 +0900,
drug6.jpg,마약,image,z,18,18,0,,,,,z,1,0.3554461000021547,None,,,,,,,,,,,,,2,0,2,0,0,18,18,18,,,,,,,,,,,,,100.9430432000081,,,,,,,,,,,,,,,,,,,,,,,,,,,,,,,,,,,,,100.93317790000583,100.96117680001771,100.9430432000081,100.9430432000081,100.9430432000081,101.04793080000672,101.41144530000747,z,1,0.3554461000021547,None,101.41312420001486,101.52812260002247,101.76314920000732,101.68508890000521,,,,,,,,,,,,,,,,,,,,,,,,,,,,,,,,,,,,,,,,,,,,,,,,,,,286422,001,2025-07-08_19h07.18.796,SC-IAT,2024.2.4,59.897670820961345,2025-07-08 19h07.42.759535 +0900,
실망하다.jpg,부정,image,slash,19,19,0,,,,,slash,1,0.5107463000167627,None,,,,,,,,,,,,,2,0,2,0,0,19,19,19,,,,,,,,,,,,,101.76314920000732,,,,,,,,,,,,,,,,,,,,,,,,,,,,,,,,,,,,,101.72986620001029,101.76314920000732,101.76314920000732,101.76314920000732,101.76314920000732,101.79761100001633,102.35077270001057,slash,1,0.5107463000167627,None,102.35319330001948,102.47654480001074,102.7123750000028,102.62569420001819,,,,,,,,,,,,,,,,,,,,,,,,,,,,,,,,,,,,,,,,,,,,,,,,,,,286422,001,2025-07-08_19h07.18.796,SC-IAT,2024.2.4,59.897670820961345,2025-07-08 19h07.42.759535 +0900,
만족하다.jpg,긍정,image,z,20,20,0,,,,,z,1,0.7818379000236746,None,,,,,,,,,,,,,2,0,2,0,0,20,20,20,,,,,,,,,,,,,102.7123750000028,,,,,,,,,,,,,,,,,,,,,,,,,,,,,,,,,,,,,102.69651100001647,102.7123750000028,102.7123750000028,102.7123750000028,102.7123750000028,102.74644980000448,103.53978520000237,z,1,0.7818379000236746,None,103.54238630001782,103.69642079999903,103.92901459999848,103.86658560001524,,,,,,,,,,,,,,,,,,,,,,,,,,,,,,,,,,,,,,,,,,,,,,,,,,,286422,001,2025-07-08_19h07.18.796,SC-IAT,2024.2.4,59.897670820961345,2025-07-08 19h07.42.759535 +0900,
비참하다.jpg,부정,image,slash,21,21,0,,,,,z,0,0.7923112999997102,None,,,,,,,,,,,,,2,0,2,0,0,21,21,21,,,,,,,,,,,,,103.92901459999848,,,,,,,,,,,,,,,,,,,,,,,,,,,,,,,,,,,,,103.90514950000215,103.96351610001875,103.92901459999848,103.92901459999848,103.92901459999848,103.9973002000188,104.80562550001196,z,0,0.7923112999997102,None,104.80816200000118,104.94333900001948,105.18059810000705,105.11129359999904,,,,,,,,,,,,,,,,,,,,,,,,,,,,,,,,,,,,,,,,,,,,,,,,,,,286422,001,2025-07-08_19h07.18.796,SC-IAT,2024.2.4,59.897670820961345,2025-07-08 19h07.42.759535 +0900,
애정하다.jpg,긍정,image,z,22,22,0,,,,,slash,0,0.4900966999994125,None,,,,,,,,,,,,,2,0,2,0,0,22,22,22,,,,,,,,,,,,,105.18059810000705,,,,,,,,,,,,,,,,,,,,,,,,,,,,,,,,,,,,,105.15039059999981,105.18059810000705,105.18059810000705,105.18059810000705,105.18059810000705,105.24622790000285,105.76827610001783,slash,0,0.4900966999994125,None,105.77075779999723,105.93100680000498,106.1623148000217,106.08545350001077,,,,,,,,,,,,,,,,,,,,,,,,,,,,,,,,,,,,,,,,,,,,,,,,,,,286422,001,2025-07-08_19h07.18.796,SC-IAT,2024.2.4,59.897670820961345,2025-07-08 19h07.42.759535 +0900,
불만족하다.jpg,부정,image,slash,23,23,0,,,,,z,0,0.5280331000103615,None,,,,,,,,,,,,,2,0,2,0,0,23,23,23,,,,,,,,,,,,,106.1623148000217,,,,,,,,,,,,,,,,,,,,,,,,,,,,,,,,,,,,,106.13976380001986,106.1623148000217,106.1623148000217,106.1623148000217,106.1623148000217,106.21368770001573,106.76792830001796,z,0,0.5280331000103615,None,106.77104490000056,106.89568770001642,107.09507330000633,107.04208530002506,,,,,,,,,,,,,,,,,,,,,,,,,,,,,,,,,,,,,,,,,,,,,,,,,,,286422,001,2025-07-08_19h07.18.796,SC-IAT,2024.2.4,59.897670820961345,2025-07-08 19h07.42.759535 +0900,
,,,,2,0,2,,,,,,,,,,,,,,,,,,,,,2,0,2,0,,,,,,,,,,,,,,,,,,,,,,,,,,,,,,,,,,,,,,,,,,,,,,,,,,,,,,,,,,,,,,,,,,,,,,,,,,,,,,,,,,,,,,,,,,,,,,,,,,,,,,,,,,,,,,,,,,,,,,,286422,001,2025-07-08_19h07.18.796,SC-IAT,2024.2.4,59.897670820961345,2025-07-08 19h07.42.759535 +0900,
,,,,,,,,,,,,,,,,,,,,,,,,,,,,,,,,,,,,,,,,,,,,,,,,,,,,,,,,,,,,,,,,,,,,,,,,,,,,,,,,,,,,,,,,,,,,,,,,,,,107.06130130001111,107.09507330000633,107.09507330000633,107.09507330000633,107.09507330000633,108.33798080001725,space,1.2288915000099223,None,,,,,,,,,,,,,,,,,,,,,,,,,,,,,,,,,,,,,,,,,,286422,001,2025-07-08_19h07.18.796,SC-IAT,2024.2.4,59.897670820961345,2025-07-08 19h07.42.759535 +0900,
None,None,None,None,0,0,0,,,,,,,,,slash,0,1.2645232999930158,None,,,,,,,,,,,,,,,,,0,0,0,58,,,,,,,,,108.47751070000231,,,,,,,,,,,,,,,,,,,,,,,,,,,,,,,,,,,,,,,,,,,,,,,,,,,,,,,,,,,,,108.4549784999981,108.47751070000231,108.47751070000231,108.47751070000231,108.47751070000231,108.47751070000231,109.75565340000321,slash,0,1.2645232999930158,None,109.76381400000537,109.89367380001931,110.07751090000966,110.03482040000381,,,,,,,,,,,,,,,,,,,,,,,,,,,286422,001,2025-07-08_19h07.18.796,SC-IAT,2024.2.4,59.897670820961345,2025-07-08 19h07.42.759535 +0900,
유쾌하다.jpg,긍정,image,z,1,1,0,,,,,,,,,slash,0,0.48030530000687577,None,,,,,,,,,,,,,,,,,0,1,1,12,,,,,,,,,110.07751090000966,,,,,,,,,,,,,,,,,,,,,,,,,,,,,,,,,,,,,,,,,,,,,,,,,,,,,,,,,,,,,110.06949750002241,110.09606989999884,110.07751090000966,110.07751090000966,110.07751090000966,110.17815710001742,110.68273520001094,slash,0,0.48030530000687577,None,110.685415200016,110.79451510001672,110.9763964000158,110.93822390001151,,,,,,,,,,,,,,,,,,,,,,,,,,,286422,001,2025-07-08_19h07.18.796,SC-IAT,2024.2.4,59.897670820961345,2025-07-08 19h07.42.759535 +0900,
즐겁다.jpg,긍정,image,z,2,2,0,,,,,,,,,z,1,0.564100799994776,None,,,,,,,,,,,,,,,,,0,2,2,16,,,,,,,,,110.9763964000158,,,,,,,,,,,,,,,,,,,,,,,,,,,,,,,,,,,,,,,,,,,,,,,,,,,,,,,,,,,,,110.95708849999937,110.99429130001226,110.9763964000158,110.9763964000158,110.9763964000158,111.04827379999915,111.61816500002169,z,1,0.564100799994776,None,111.61891830002423,111.74475549999624,111.97842490000767,111.91466940002283,,,,,,,,,,,,,,,,,,,,,,,,,,,286422,001,2025-07-08_19h07.18.796,SC-IAT,2024.2.4,59.897670820961345,2025-07-08 19h07.42.759535 +0900,
화나다.jpg,부정,image,slash,3,3,0,,,,,,,,,z,0,0.5848410000035074,None,,,,,,,,,,,,,,,,,0,3,3,35,,,,,,,,,111.97842490000767,,,,,,,,,,,,,,,,,,,,,,,,,,,,,,,,,,,,,,,,,,,,,,,,,,,,,,,,,,,,,111.95832740000333,112.01398930000141,111.97842490000767,111.97842490000767,111.97842490000767,112.04764050000813,112.6680567000003,z,0,0.5848410000035074,None,112.67100010000286,112.81380250002258,113.07724660000531,112.9888106000144,,,,,,,,,,,,,,,,,,,,,,,,,,,286422,001,2025-07-08_19h07.18.796,SC-IAT,2024.2.4,59.897670820961345,2025-07-08 19h07.42.759535 +0900,
비참하다.jpg,부정,image,slash,4,4,0,,,,,,,,,slash,1,0.43235469999490306,None,,,,,,,,,,,,,,,,,0,4,4,30,,,,,,,,,113.07724660000531,,,,,,,,,,,,,,,,,,,,,,,,,,,,,,,,,,,,,,,,,,,,,,,,,,,,,,,,,,,,,113.06012639999972,113.07724660000531,113.07724660000531,113.07724660000531,113.07724660000531,113.11009420000482,113.56955510002444,slash,1,0.43235469999490306,None,113.57082620001165,113.71466330002295,113.99641400002292,113.89749810000649,,,,,,,,,,,,,,,,,,,,,,,,,,,286422,001,2025-07-08_19h07.18.796,SC-IAT,2024.2.4,59.897670820961345,2025-07-08 19h07.42.759535 +0900,
자랑스럽다.jpg,긍정,image,z,5,5,0,,,,,,,,,slash,0,1.38004039999214,None,,,,,,,,,,,,,,,,,0,5,5,20,,,,,,,,,113.99641400002292,,,,,,,,,,,,,,,,,,,,,,,,,,,,,,,,,,,,,,,,,,,,,,,,,,,,,,,,,,,,,113.96881479999865,113.99641400002292,113.99641400002292,113.99641400002292,113.99641400002292,114.03157930000452,115.43433350001578,slash,0,1.38004039999214,None,115.43493050002144,115.59587810002267,115.84609800000908,115.76521470001899,,,,,,,,,,,,,,,,,,,,,,,,,,,286422,001,2025-07-08_19h07.18.796,SC-IAT,2024.2.4,59.897670820961345,2025-07-08 19h07.42.759535 +0900,
불쾌하다.jpg,부정,image,slash,6,6,0,,,,,,,,,z,0,0.561869500001194,None,,,,,,,,,,,,,,,,,0,6,6,28,,,,,,,,,115.84609800000908,,,,,,,,,,,,,,,,,,,,,,,,,,,,,,,,,,,,,,,,,,,,,,,,,,,,,,,,,,,,,115.81801090002409,115.84609800000908,115.84609800000908,115.84609800000908,115.84609800000908,115.92973210001946,116.50443840000662,z,0,0.561869500001194,None,116.50539370000479,116.62708950001979,116.86241500001051,116.7872227000189,,,,,,,,,,,,,,,,,,,,,,,,,,,286422,001,2025-07-08_19h07.18.796,SC-IAT,2024.2.4,59.897670820961345,2025-07-08 19h07.42.759535 +0900,
훌륭하다.jpg,긍정,image,z,7,7,0,,,,,,,,,slash,0,0.6183915000001434,None,,,,,,,,,,,,,,,,,0,7,7,18,,,,,,,,,116.86241500001051,,,,,,,,,,,,,,,,,,,,,,,,,,,,,,,,,,,,,,,,,,,,,,,,,,,,,,,,,,,,,116.83289260001038,116.86241500001051,116.86241500001051,116.86241500001051,116.86241500001051,116.91213530002278,117.55405390000669,slash,0,0.6183915000001434,None,117.55494620001991,117.6961605999968,117.91248990001623,117.85097930001211,,,,,,,,,,,,,,,,,,,,,,,,,,,286422,001,2025-07-08_19h07.18.796,SC-IAT,2024.2.4,59.897670820961345,2025-07-08 19h07.42.759535 +0900,
None,None,None,None,8,8,0,,,,,,,,,z,0,0.5942276999994647,None,,,,,,,,,,,,,,,,,0,8,8,49,,,,,,,,,117.91248990001623,,,,,,,,,,,,,,,,,,,,,,,,,,,,,,,,,,,,,,,,,,,,,,,,,,,,,,,,,,,,,117.89159350001137,117.94779130001552,117.91248990001623,117.91248990001623,117.91248990001623,117.98162470001262,118.60707410000032,z,0,0.5942276999994647,None,118.60831860001781,118.7285609000246,118.94489850001992,118.88792680000188,,,,,,,,,,,,,,,,,,,,,,,,,,,286422,001,2025-07-08_19h07.18.796,SC-IAT,2024.2.4,59.897670820961345,2025-07-08 19h07.42.759535 +0900,
drug2.jpg,마약,image,z,9,9,0,,,,,,,,,slash,0,0.732864999998128,None,,,,,,,,,,,,,,,,,0,9,9,43,,,,,,,,,118.94489850001992,,,,,,,,,,,,,,,,,,,,,,,,,,,,,,,,,,,,,,,,,,,,,,,,,,,,,,,,,,,,,118.92996249999851,118.94489850001992,118.94489850001992,118.94489850001992,118.94489850001992,118.99746900002356,119.75462429999607,slash,0,0.732864999998128,None,119.75588910002261,119.87714320002124,120.05995980001171,120.02066520001972,,,,,,,,,,,,,,,,,,,,,,,,,,,286422,001,2025-07-08_19h07.18.796,SC-IAT,2024.2.4,59.897670820961345,2025-07-08 19h07.42.759535 +0900,
매력있다.jpg,긍정,image,z,10,10,0,,,,,,,,,slash,0,0.48798879998503253,None,,,,,,,,,,,,,,,,,0,10,10,3,,,,,,,,,120.05995980001171,,,,,,,,,,,,,,,,,,,,,,,,,,,,,,,,,,,,,,,,,,,,,,,,,,,,,,,,,,,,,120.04523970000446,120.0772655000037,120.05995980001171,120.05995980001171,120.05995980001171,120.1277601000038,120.63707789999899,slash,0,0.48798879998503253,None,120.63892270001816,120.81213430000935,121.02693740001996,120.97147200000472,,,,,,,,,,,,,,,,,,,,,,,,,,,286422,001,2025-07-08_19h07.18.796,SC-IAT,2024.2.4,59.897670820961345,2025-07-08 19h07.42.759535 +0900,
기쁘다.jpg,긍정,image,z,11,11,0,,,,,,,,,slash,0,0.4505302999750711,None,,,,,,,,,,,,,,,,,0,11,11,0,,,,,,,,,121.02693740001996,,,,,,,,,,,,,,,,,,,,,,,,,,,,,,,,,,,,,,,,,,,,,,,,,,,,,,,,,,,,,121.01002800001879,121.0449043000117,121.02693740001996,121.02693740001996,121.02693740001996,121.07900600001449,121.55378800001927,slash,0,0.4505302999750711,None,121.55517629999667,121.6938480999961,121.87776520001353,121.83492079999996,,,,,,,,,,,,,,,,,,,,,,,,,,,286422,001,2025-07-08_19h07.18.796,SC-IAT,2024.2.4,59.897670820961345,2025-07-08 19h07.42.759535 +0900,
불만족하다.jpg,부정,image,slash,12,12,0,,,,,,,,,slash,1,0.5369590000191238,None,,,,,,,,,,,,,,,,,0,12,12,27,,,,,,,,,121.87776520001353,,,,,,,,,,,,,,,,,,,,,,,,,,,,,,,,,,,,,,,,,,,,,,,,,,,,,,,,,,,,,121.85880909999833,121.91259350001928,121.87776520001353,121.87776520001353,121.87776520001353,121.94550770000205,122.4906675000093,slash,1,0.5369590000191238,None,122.49395040000672,122.62929559999611,122.83128490002127,122.76756269999896,,,,,,,,,,,,,,,,,,,,,,,,,,,286422,001,2025-07-08_19h07.18.796,SC-IAT,2024.2.4,59.897670820961345,2025-07-08 19h07.42.759535 +0900,
None,None,None,None,13,13,0,,,,,,,,,z,0,0.5904202999954578,None,,,,,,,,,,,,,,,,,0,13,13,61,,,,,,,,,122.83128490002127,,,,,,,,,,,,,,,,,,,,,,,,,,,,,,,,,,,,,,,,,,,,,,,,,,,,,,,,,,,,,122.81371440002113,122.83128490002127,122.83128490002127,122.83128490002127,122.83128490002127,122.92856690002372,123.5386131000123,z,0,0.5904202999954578,None,123.54168900000514,123.6780671000015,123.86039139999775,123.81785540000419,,,,,,,,,,,,,,,,,,,,,,,,,,,286422,001,2025-07-08_19h07.18.796,SC-IAT,2024.2.4,59.897670820961345,2025-07-08 19h07.42.759535 +0900,
상쾌하다.jpg ,긍정,image,z,14,14,0,,,,,,,,,slash,0,0.367507699993439,None,,,,,,,,,,,,,,,,,0,14,14,9,,,,,,,,,123.86039139999775,,,,,,,,,,,,,,,,,,,,,,,,,,,,,,,,,,,,,,,,,,,,,,,,,,,,,,,,,,,,,123.85274960001698,123.87730340001872,123.86039139999775,123.86039139999775,123.86039139999775,123.94656750001013,124.3353383000067,slash,0,0.367507699993439,None,124.33681440001237,124.47878520001541,124.71232210000744,124.64703180000652,,,,,,,,,,,,,,,,,,,,,,,,,,,286422,001,2025-07-08_19h07.18.796,SC-IAT,2024.2.4,59.897670820961345,2025-07-08 19h07.42.759535 +0900,
불행하다.jpg,부정,image,slash,15,15,0,,,,,,,,,z,0,0.5882378999958746,None,,,,,,,,,,,,,,,,,0,15,15,29,,,,,,,,,124.71232210000744,,,,,,,,,,,,,,,,,,,,,,,,,,,,,,,,,,,,,,,,,,,,,,,,,,,,,,,,,,,,,124.6928365000058,124.74691800001892,124.71232210000744,124.71232210000744,124.71232210000744,124.77939199999673,125.379937300022,z,0,0.5882378999958746,None,125.38221450001583,125.51390459999675,125.72904220002238,125.66455350001343,,,,,,,,,,,,,,,,,,,,,,,,,,,286422,001,2025-07-08_19h07.18.796,SC-IAT,2024.2.4,59.897670820961345,2025-07-08 19h07.42.759535 +0900,
drug4.jpg,마약,image,z,16,16,0,,,,,,,,,z,1,0.36402850001468323,None,,,,,,,,,,,,,,,,,0,16,16,45,,,,,,,,,125.72904220002238,,,,,,,,,,,,,,,,,,,,,,,,,,,,,,,,,,,,,,,,,,,,,,,,,,,,,,,,,,,,,125.69998320000013,125.72904220002238,125.72904220002238,125.72904220002238,125.72904220002238,125.83054630001425,126.23625250000623,z,1,0.36402850001468323,None,126.23806260002311,126.36334010001156,126.56061800001771,126.52163270002347,,,,,,,,,,,,,,,,,,,,,,,,,,,286422,001,2025-07-08_19h07.18.796,SC-IAT,2024.2.4,59.897670820961345,2025-07-08 19h07.42.759535 +0900,
경멸하다.jpg,부정,image,slash,17,17,0,,,,,,,,,z,0,0.4167874000268057,None,,,,,,,,,,,,,,,,,0,17,17,23,,,,,,,,,126.56061800001771,,,,,,,,,,,,,,,,,,,,,,,,,,,,,,,,,,,,,,,,,,,,,,,,,,,,,,,,,,,,,126.54087450000225,126.59409020000021,126.56061800001771,126.56061800001771,126.56061800001771,126.64477620000253,127.0877059000195,z,0,0.4167874000268057,None,127.0983711000008,127.21428210000158,127.41055359999882,127.36709070001962,,,,,,,,,,,,,,,,,,,,,,,,,,,286422,001,2025-07-08_19h07.18.796,SC-IAT,2024.2.4,59.897670820961345,2025-07-08 19h07.42.759535 +0900,
증오하다.jpg,부정,image,slash,18,18,0,,,,,,,,,slash,1,0.42149090001476,None,,,,,,,,,,,,,,,,,0,18,18,40,,,,,,,,,127.41055359999882,,,,,,,,,,,,,,,,,,,,,,,,,,,,,,,,,,,,,,,,,,,,,,,,,,,,,,,,,,,,,127.40117220001412,127.42880150000565,127.41055359999882,127.41055359999882,127.41055359999882,127.5154831999971,127.94958250000491,slash,1,0.42149090001476,None,127.95605770000839,128.060521300009,128.29644950001966,128.22630110001774,,,,,,,,,,,,,,,,,,,,,,,,,,,286422,001,2025-07-08_19h07.18.796,SC-IAT,2024.2.4,59.897670820961345,2025-07-08 19h07.42.759535 +0900,
평화롭다.jpg,긍정,image,z,19,19,0,,,,,,,,,z,1,0.5115823999803979,None,,,,,,,,,,,,,,,,,0,19,19,8,,,,,,,,,128.29644950001966,,,,,,,,,,,,,,,,,,,,,,,,,,,,,,,,,,,,,,,,,,,,,,,,,,,,,,,,,,,,,128.2736714000057,128.29644950001966,128.29644950001966,128.29644950001966,128.29644950001966,128.36272560001817,128.88271380000515,z,1,0.5115823999803979,None,128.88446150001255,128.9939075000002,129.2290314999991,129.16638780001085,,,,,,,,,,,,,,,,,,,,,,,,,,,286422,001,2025-07-08_19h07.18.796,SC-IAT,2024.2.4,59.897670820961345,2025-07-08 19h07.42.759535 +0900,
억울하다.jpg,부정,image,slash,20,20,0,,,,,,,,,slash,1,0.4183363000047393,None,,,,,,,,,,,,,,,,,0,20,20,37,,,,,,,,,129.2290314999991,,,,,,,,,,,,,,,,,,,,,,,,,,,,,,,,,,,,,,,,,,,,,,,,,,,,,,,,,,,,,129.21768280002289,129.2290314999991,129.2290314999991,129.2290314999991,129.2290314999991,129.29556680002133,129.74046090000775,slash,1,0.4183363000047393,None,129.74293490001583,129.87698890001047,130.0607267000014,130.02075300001889,,,,,,,,,,,,,,,,,,,,,,,,,,,286422,001,2025-07-08_19h07.18.796,SC-IAT,2024.2.4,59.897670820961345,2025-07-08 19h07.42.759535 +0900,
만족하다.jpg,긍정,image,z,21,21,0,,,,,,,,,z,1,0.48018900002352893,None,,,,,,,,,,,,,,,,,0,21,21,1,,,,,,,,,130.0607267000014,,,,,,,,,,,,,,,,,,,,,,,,,,,,,,,,,,,,,,,,,,,,,,,,,,,,,,,,,,,,,130.0428342000232,130.07897480000975,130.0607267000014,130.0607267000014,130.0607267000014,130.12765680000302,130.6319473000185,z,1,0.48018900002352893,None,130.63388150001992,130.7817428999988,131.01092250001966,130.93636870000046,,,,,,,,,,,,,,,,,,,,,,,,,,,286422,001,2025-07-08_19h07.18.796,SC-IAT,2024.2.4,59.897670820961345,2025-07-08 19h07.42.759535 +0900,
None,None,None,None,22,22,0,,,,,,,,,z,0,0.6532201000081841,None,,,,,,,,,,,,,,,,,0,22,22,59,,,,,,,,,131.01092250001966,,,,,,,,,,,,,,,,,,,,,,,,,,,,,,,,,,,,,,,,,,,,,,,,,,,,,,,,,,,,,130.99086430002353,131.01092250001966,131.01092250001966,131.01092250001966,131.01092250001966,131.04668390000006,131.75290950000635,z,0,0.6532201000081841,None,131.75445930002024,131.89808810001705,132.09407000002102,132.05170680000447,,,,,,,,,,,,,,,,,,,,,,,,,,,286422,001,2025-07-08_19h07.18.796,SC-IAT,2024.2.4,59.897670820961345,2025-07-08 19h07.42.759535 +0900,
drug3.jpg,마약,image,z,23,23,0,,,,,,,,,slash,0,0.5394293999997899,None,,,,,,,,,,,,,,,,,0,23,23,44,,,,,,,,,132.09407000002102,,,,,,,,,,,,,,,,,,,,,,,,,,,,,,,,,,,,,,,,,,,,,,,,,,,,,,,,,,,,,132.08410850001383,132.1118117000151,132.09407000002102,132.09407000002102,132.09407000002102,132.19425930001307,132.73580180000863,slash,0,0.5394293999997899,None,132.73644860001514,132.87949000002118,133.0624915000226,133.0318513000093,,,,,,,,,,,,,,,,,,,,,,,,,,,286422,001,2025-07-08_19h07.18.796,SC-IAT,2024.2.4,59.897670820961345,2025-07-08 19h07.42.759535 +0900,
,,,,,,,,,,,,,,,,,,,,,,,,,,,,,,,,,,,,,,,,,,,,,,,,,,,,,,,,,,,,,,,,,,,,,,,,,,,,,,,,,,,,,,,,,,,,,,,,,,,,,,,,,,,,,,,,,,,,,,,,,,,133.0322342000145,133.0624915000226,133.0624915000226,133.0624915000226,133.0624915000226,134.32173960001091,space,1.2476070999982767,None,,,,,,,,,,,,,,,,,,286422,001,2025-07-08_19h07.18.796,SC-IAT,2024.2.4,59.897670820961345,2025-07-08 19h07.42.759535 +0900,
암담하다.jpg,부정,image,slash,0,0,0,,,,,,,,,,,,,slash,1,0.6940746000036597,None,,,,,,,,,,,,,,,,,0,0,0,0,0,0,0,0,134.46519970000372,,,,,,,,,,,,,,,,,,,,,,,,,,,,,,,,,,,,,,,,,,,,,,,,,,,,,,,,,,,,,,,,,,,,,,,,,,,,,,,,,,,,,134.3895179000101,134.39059690001886,134.4313710000133,134.46519970000372,134.46519970000372,134.46519970000372,134.46519970000372,134.51401549999719,135.2212529000244,slash,1,0.6940746000036597,None,135.23341320001055,135.36166019999655,135.5609513000236,135.5073207000096,286422,001,2025-07-08_19h07.18.796,SC-IAT,2024.2.4,59.897670820961345,2025-07-08 19h07.42.759535 +0900,
거북하다.jpg,부정,image,slash,1,1,0,,,,,,,,,,,,,slash,1,1.1687213999975938,None,,,,,,,,,,,,,,,,,0,0,0,0,0,1,1,1,135.5609513000236,,,,,,,,,,,,,,,,,,,,,,,,,,,,,,,,,,,,,,,,,,,,,,,,,,,,,,,,,,,,,,,,,,,,,,,,,,,,,,,,,,,,,,,135.5428194999986,135.5943236000021,135.5609513000236,135.5609513000236,135.5609513000236,135.6123607000045,136.78706450000755,slash,1,1.1687213999975938,None,136.78783610000391,136.94558450000477,137.1788182000164,137.11711230000947,286422,001,2025-07-08_19h07.18.796,SC-IAT,2024.2.4,59.897670820961345,2025-07-08 19h07.42.759535 +0900,
억울하다.jpg,부정,image,slash,2,2,0,,,,,,,,,,,,,z,0,0.5519415999879129,None,,,,,,,,,,,,,,,,,0,0,0,0,0,2,2,2,137.1788182000164,,,,,,,,,,,,,,,,,,,,,,,,,,,,,,,,,,,,,,,,,,,,,,,,,,,,,,,,,,,,,,,,,,,,,,,,,,,,,,,,,,,,,,,137.1534493000072,137.2150432000053,137.1788182000164,137.1788182000164,137.1788182000164,137.2462169000064,137.82017940000514,z,0,0.5519415999879129,None,137.8230400000175,137.94524050000473,138.1651582000195,138.0898580000212,286422,001,2025-07-08_19h07.18.796,SC-IAT,2024.2.4,59.897670820961345,2025-07-08 19h07.42.759535 +0900,
좌절하다.jpg,부정,image,slash,3,3,0,,,,,,,,,,,,,z,0,0.6144682000158355,None,,,,,,,,,,,,,,,,,0,0,0,0,0,3,3,3,138.1651582000195,,,,,,,,,,,,,,,,,,,,,,,,,,,,,,,,,,,,,,,,,,,,,,,,,,,,,,,,,,,,,,,,,,,,,,,,,,,,,,,,,,,,,,,138.1362528000027,138.1651582000195,138.1651582000195,138.1651582000195,138.1651582000195,138.2127703000151,138.87265550001757,z,0,0.6144682000158355,None,138.87574260000838,138.99384160002228,139.22957530000713,139.15582280000672,286422,001,2025-07-08_19h07.18.796,SC-IAT,2024.2.4,59.897670820961345,2025-07-08 19h07.42.759535 +0900,
즐겁다.jpg,긍정,image,z,4,4,0,,,,,,,,,,,,,slash,0,0.6028656999988016,None,,,,,,,,,,,,,,,,,0,0,0,0,0,4,4,4,139.22957530000713,,,,,,,,,,,,,,,,,,,,,,,,,,,,,,,,,,,,,,,,,,,,,,,,,,,,,,,,,,,,,,,,,,,,,,,,,,,,,,,,,,,,,,,139.1990291000111,139.22957530000713,139.22957530000713,139.22957530000713,139.22957530000713,139.26484790001996,139.92275820000214,slash,0,0.6028656999988016,None,139.92494940001052,140.04455920000328,140.22855790000176,140.18563809999614,286422,001,2025-07-08_19h07.18.796,SC-IAT,2024.2.4,59.897670820961345,2025-07-08 19h07.42.759535 +0900,
슬프다.jpg,부정,image,slash,5,5,0,,,,,,,,,,,,,z,0,0.5693884000065736,None,,,,,,,,,,,,,,,,,0,0,0,0,0,5,5,5,140.22855790000176,,,,,,,,,,,,,,,,,,,,,,,,,,,,,,,,,,,,,,,,,,,,,,,,,,,,,,,,,,,,,,,,,,,,,,,,,,,,,,,,,,,,,,,140.21369590001996,140.2464291000215,140.22855790000176,140.22855790000176,140.22855790000176,140.2960432000109,140.8729113000154,z,0,0.5693884000065736,None,140.87843179999618,140.99715050001396,141.21152360000997,141.15509330001078,286422,001,2025-07-08_19h07.18.796,SC-IAT,2024.2.4,59.897670820961345,2025-07-08 19h07.42.759535 +0900,
자랑스럽다.jpg,긍정,image,z,6,6,0,,,,,,,,,,,,,slash,0,0.8436657999991439,None,,,,,,,,,,,,,,,,,0,0,0,0,0,6,6,6,141.21152360000997,,,,,,,,,,,,,,,,,,,,,,,,,,,,,,,,,,,,,,,,,,,,,,,,,,,,,,,,,,,,,,,,,,,,,,,,,,,,,,,,,,,,,,,141.19957990001421,141.21152360000997,141.21152360000997,141.21152360000997,141.21152360000997,141.26257120000082,142.12275180002325,slash,0,0.8436657999991439,None,142.12504199999967,142.2642967000138,142.44418820002466,142.4179473000113,286422,001,2025-07-08_19h07.18.796,SC-IAT,2024.2.4,59.897670820961345,2025-07-08 19h07.42.759535 +0900,
불만족하다.jpg,부정,image,slash,7,7,0,,,,,,,,,,,,,slash,1,1.0921671999967657,None,,,,,,,,,,,,,,,,,0,0,0,0,0,7,7,7,142.44418820002466,,,,,,,,,,,,,,,,,,,,,,,,,,,,,,,,,,,,,,,,,,,,,,,,,,,,,,,,,,,,,,,,,,,,,,,,,,,,,,,,,,,,,,,142.43535549999797,142.47769950001384,142.44418820002466,142.44418820002466,142.44418820002466,142.52821119999862,143.6377094000054,slash,1,1.0921671999967657,None,143.6511971,143.78239350000513,144.01251700002467,143.94754200000898,286422,001,2025-07-08_19h07.18.796,SC-IAT,2024.2.4,59.897670820961345,2025-07-08 19h07.42.759535 +0900,
괴롭다.jpg,부정,image,slash,8,8,0,,,,,,,,,,,,,z,0,0.521757600014098,None,,,,,,,,,,,,,,,,,0,0,0,0,0,8,8,8,144.01251700002467,,,,,,,,,,,,,,,,,,,,,,,,,,,,,,,,,,,,,,,,,,,,,,,,,,,,,,,,,,,,,,,,,,,,,,,,,,,,,,,,,,,,,,,143.9903728000063,144.01251700002467,144.01251700002467,144.01251700002467,144.01251700002467,144.08134480001172,144.63408370001707,z,0,0.521757600014098,None,144.63484910002444,144.78116270000464,145.04729499999667,144.95102140001836,286422,001,2025-07-08_19h07.18.796,SC-IAT,2024.2.4,59.897670820961345,2025-07-08 19h07.42.759535 +0900,
뿌듯하다.jpg,긍정,image,z,9,9,0,,,,,,,,,,,,,slash,0,0.7160847000195645,None,,,,,,,,,,,,,,,,,0,0,0,0,0,9,9,9,145.04729499999667,,,,,,,,,,,,,,,,,,,,,,,,,,,,,,,,,,,,,,,,,,,,,,,,,,,,,,,,,,,,,,,,,,,,,,,,,,,,,,,,,,,,,,,145.01960650002002,145.04729499999667,145.04729499999667,145.04729499999667,145.04729499999667,145.08165130001726,145.83412650000537,slash,0,0.7160847000195645,None,145.83690399999614,145.9787159000116,146.1960698000039,146.13658130000113,286422,001,2025-07-08_19h07.18.796,SC-IAT,2024.2.4,59.897670820961345,2025-07-08 19h07.42.759535 +0900,
반갑다.jpg,긍정,image,z,10,10,0,,,,,,,,,,,,,slash,0,0.4414618999871891,None,,,,,,,,,,,,,,,,,0,0,0,0,0,10,10,10,146.1960698000039,,,,,,,,,,,,,,,,,,,,,,,,,,,,,,,,,,,,,,,,,,,,,,,,,,,,,,,,,,,,,,,,,,,,,,,,,,,,,,,,,,,,,,,146.18205760000274,146.1960698000039,146.1960698000039,146.1960698000039,146.1960698000039,146.2804177000071,146.73713650001446,slash,0,0.4414618999871891,None,146.73802570000407,146.86006200002157,147.12742370000342,147.01730600002338,286422,001,2025-07-08_19h07.18.796,SC-IAT,2024.2.4,59.897670820961345,2025-07-08 19h07.42.759535 +0900,
평화롭다.jpg,긍정,image,z,11,11,0,,,,,,,,,,,,,slash,0,1.4796245000034105,None,,,,,,,,,,,,,,,,,0,0,0,0,0,11,11,11,147.12742370000342,,,,,,,,,,,,,,,,,,,,,,,,,,,,,,,,,,,,,,,,,,,,,,,,,,,,,,,,,,,,,,,,,,,,,,,,,,,,,,,,,,,,,,,147.10949110001093,147.12742370000342,147.12742370000342,147.12742370000342,147.12742370000342,147.1497777000186,148.6677442000073,slash,0,1.4796245000034105,None,148.66920450000907,148.81062870001188,148.99424250001903,148.95308649999788,286422,001,2025-07-08_19h07.18.796,SC-IAT,2024.2.4,59.897670820961345,2025-07-08 19h07.42.759535 +0900,
만족하다.jpg,긍정,image,z,12,12,0,,,,,,,,,,,,,slash,0,0.7691454000014346,None,,,,,,,,,,,,,,,,,0,0,0,0,0,12,12,12,148.99424250001903,,,,,,,,,,,,,,,,,,,,,,,,,,,,,,,,,,,,,,,,,,,,,,,,,,,,,,,,,,,,,,,,,,,,,,,,,,,,,,,,,,,,,,,148.97117380000418,149.02760980001767,148.99424250001903,148.99424250001903,148.99424250001903,149.07753730000695,149.88683510001283,slash,0,0.7691454000014346,None,149.88931590001448,150.0133169000037,150.21101470000576,150.16990320000332,286422,001,2025-07-08_19h07.18.796,SC-IAT,2024.2.4,59.897670820961345,2025-07-08 19h07.42.759535 +0900,
화나다.jpg,부정,image,slash,13,13,0,,,,,,,,,,,,,z,0,0.45794210000894964,None,,,,,,,,,,,,,,,,,0,0,0,0,0,13,13,13,150.21101470000576,,,,,,,,,,,,,,,,,,,,,,,,,,,,,,,,,,,,,,,,,,,,,,,,,,,,,,,,,,,,,,,,,,,,,,,,,,,,,,,,,,,,,,,150.18767860002117,150.2451812000072,150.21101470000576,150.21101470000576,150.21101470000576,150.29636000000755,150.7697279000131,z,0,0.45794210000894964,None,150.77122439999948,150.89555560000008,151.16115200001514,151.06722369999625,286422,001,2025-07-08_19h07.18.796,SC-IAT,2024.2.4,59.897670820961345,2025-07-08 19h07.42.759535 +0900,
drug2.jpg,마약,image,z,14,14,0,,,,,,,,,,,,,slash,0,0.6289400999958161,None,,,,,,,,,,,,,,,,,0,0,0,0,0,14,14,14,151.16115200001514,,,,,,,,,,,,,,,,,,,,,,,,,,,,,,,,,,,,,,,,,,,,,,,,,,,,,,,,,,,,,,,,,,,,,,,,,,,,,,,,,,,,,,,151.1497001000098,151.16115200001514,151.16115200001514,151.16115200001514,151.16115200001514,151.1939917000127,151.83815650001634,slash,0,0.6289400999958161,None,151.8388838999963,151.96202679999988,152.19563030000427,152.1180286000017,286422,001,2025-07-08_19h07.18.796,SC-IAT,2024.2.4,59.897670820961345,2025-07-08 19h07.42.759535 +0900,
역겹다.jpg,부정,image,slash,15,15,0,,,,,,,,,,,,,z,0,0.5793477999977767,None,,,,,,,,,,,,,,,,,0,0,0,0,0,15,15,15,152.19563030000427,,,,,,,,,,,,,,,,,,,,,,,,,,,,,,,,,,,,,,,,,,,,,,,,,,,,,,,,,,,,,,,,,,,,,,,,,,,,,,,,,,,,,,,152.16324190000887,152.19563030000427,152.19563030000427,152.19563030000427,152.19563030000427,152.2297298000194,152.85466840001754,z,0,0.5793477999977767,None,152.8560046000057,152.99521480000112,153.21300869999686,153.16385040001478,286422,001,2025-07-08_19h07.18.796,SC-IAT,2024.2.4,59.897670820961345,2025-07-08 19h07.42.759535 +0900,
흥미롭다.jpg,긍정,image,z,16,16,0,,,,,,,,,,,,,z,1,0.47087099999771453,None,,,,,,,,,,,,,,,,,0,0,0,0,0,16,16,16,153.21300869999686,,,,,,,,,,,,,,,,,,,,,,,,,,,,,,,,,,,,,,,,,,,,,,,,,,,,,,,,,,,,,,,,,,,,,,,,,,,,,,,,,,,,,,,153.1987184000027,153.21300869999686,153.21300869999686,153.21300869999686,153.21300869999686,153.28041790000862,153.78005460000713,z,1,0.47087099999771453,None,153.78321799999685,153.91176340001402,154.0958721000061,154.05594690001453,286422,001,2025-07-08_19h07.18.796,SC-IAT,2024.2.4,59.897670820961345,2025-07-08 19h07.42.759535 +0900,
drug4.jpg,마약,image,z,17,17,0,,,,,,,,,,,,,slash,0,0.4070678999996744,None,,,,,,,,,,,,,,,,,0,0,0,0,0,17,17,17,154.0958721000061,,,,,,,,,,,,,,,,,,,,,,,,,,,,,,,,,,,,,,,,,,,,,,,,,,,,,,,,,,,,,,,,,,,,,,,,,,,,,,,,,,,,,,,154.08111240001745,154.1292356000049,154.0958721000061,154.0958721000061,154.0958721000061,154.19506470000488,154.62332980000065,slash,0,0.4070678999996744,None,154.62457430001814,154.7619384000136,154.94522950000828,154.9046301000053,286422,001,2025-07-08_19h07.18.796,SC-IAT,2024.2.4,59.897670820961345,2025-07-08 19h07.42.759535 +0900,
사랑스럽다.jpg,긍정,image,z,18,18,0,,,,,,,,,,,,,slash,0,0.4292956999852322,None,,,,,,,,,,,,,,,,,0,0,0,0,0,18,18,18,154.94522950000828,,,,,,,,,,,,,,,,,,,,,,,,,,,,,,,,,,,,,,,,,,,,,,,,,,,,,,,,,,,,,,,,,,,,,,,,,,,,,,,,,,,,,,,154.92692190001253,154.9792183000245,154.94522950000828,154.94522950000828,154.94522950000828,155.06480829999782,155.51842560002115,slash,0,0.4292956999852322,None,155.51969230000395,155.6624059000169,155.8800418000028,155.81394710001769,286422,001,2025-07-08_19h07.18.796,SC-IAT,2024.2.4,59.897670820961345,2025-07-08 19h07.42.759535 +0900,
재미있다.jpg,긍정,image,z,19,19,0,,,,,,,,,,,,,slash,0,0.4505731000099331,None,,,,,,,,,,,,,,,,,0,0,0,0,0,19,19,19,155.8800418000028,,,,,,,,,,,,,,,,,,,,,,,,,,,,,,,,,,,,,,,,,,,,,,,,,,,,,,,,,,,,,,,,,,,,,,,,,,,,,,,,,,,,,,,155.85460690001491,155.93065340002067,155.8800418000028,155.8800418000028,155.8800418000028,155.93065340002067,156.38855970001896,slash,0,0.4505731000099331,None,156.39407370000845,156.5134750000143,156.72772590001114,156.66696760000195,286422,001,2025-07-08_19h07.18.796,SC-IAT,2024.2.4,59.897670820961345,2025-07-08 19h07.42.759535 +0900,
격분하다.jpg,부정,image,slash,20,20,0,,,,,,,,,,,,,slash,1,0.4368403000116814,None,,,,,,,,,,,,,,,,,0,0,0,0,0,20,20,20,156.72772590001114,,,,,,,,,,,,,,,,,,,,,,,,,,,,,,,,,,,,,,,,,,,,,,,,,,,,,,,,,,,,,,,,,,,,,,,,,,,,,,,,,,,,,,,156.7103872000007,156.76128560001962,156.72772590001114,156.72772590001114,156.72772590001114,156.7941255000187,157.25238370001898,slash,1,0.4368403000116814,None,157.26717210002244,157.3777323999966,157.5794603000104,157.51869570001145,286422,001,2025-07-08_19h07.18.796,SC-IAT,2024.2.4,59.897670820961345,2025-07-08 19h07.42.759535 +0900,
drug3.jpg,마약,image,z,21,21,0,,,,,,,,,,,,,z,1,0.487691399990581,None,,,,,,,,,,,,,,,,,0,0,0,0,0,21,21,21,157.5794603000104,,,,,,,,,,,,,,,,,,,,,,,,,,,,,,,,,,,,,,,,,,,,,,,,,,,,,,,,,,,,,,,,,,,,,,,,,,,,,,,,,,,,,,,157.55779160000384,157.61392890001298,157.5794603000104,157.5794603000104,157.5794603000104,157.6473651000124,158.17457010000362,z,1,0.487691399990581,None,158.17652360000648,158.31088730000192,158.4956133000087,158.45605110001634,286422,001,2025-07-08_19h07.18.796,SC-IAT,2024.2.4,59.897670820961345,2025-07-08 19h07.42.759535 +0900,
끔찍하다.jpg,부정,image,slash,22,22,0,,,,,,,,,,,,,z,0,0.3693032000155654,None,,,,,,,,,,,,,,,,,0,0,0,0,0,22,22,22,158.4956133000087,,,,,,,,,,,,,,,,,,,,,,,,,,,,,,,,,,,,,,,,,,,,,,,,,,,,,,,,,,,,,,,,,,,,,,,,,,,,,,,,,,,,,,,158.47461520001525,158.5297247999988,158.4956133000087,158.4956133000087,158.4956133000087,158.56537090000347,158.95567380002467,z,0,0.3693032000155654,None,158.95847660000436,159.0987103000225,159.3628135000181,159.26365810001153,286422,001,2025-07-08_19h07.18.796,SC-IAT,2024.2.4,59.897670820961345,2025-07-08 19h07.42.759535 +0900,
편안하다.jpg,긍정,image,z,23,23,0,,,,,,,,,,,,,slash,0,0.5527108999958728,None,,,,,,,,,,,,,,,,,0,0,0,0,0,23,23,23,159.3628135000181,,,,,,,,,,,,,,,,,,,,,,,,,,,,,,,,,,,,,,,,,,,,,,,,,,,,,,,,,,,,,,,,,,,,,,,,,,,,,,,,,,,,,,,159.34834090000368,159.3628135000181,159.3628135000181,159.3628135000181,159.3628135000181,159.37813820000156,159.94344380000257,slash,0,0.5527108999958728,None,159.94660830000066,160.06154900000547,160.32815750001464,160.22066530000302,286422,001,2025-07-08_19h07.18.796,SC-IAT,2024.2.4,59.897670820961345,2025-07-08 19h07.42.759535 +0900,
,,,,0,0,0,,,,,,,,,,,,,,,,,,,,,,,,,,,,,,,,,0,0,0,0,,,,,,,,,,,,,,,,,,,,,,,,,,,,,,,,,,,,,,,,,,,,,,,,,,,,,,,,,,,,,,,,,,,,,,,,,,,,,,,,,,,,,,,,,,,,,,,,,,,,,,,,,,,286422,001,2025-07-08_19h07.18.796,SC-IAT,2024.2.4,59.897670820961345,2025-07-08 19h07.42.759535 +0900,
drug6.jpg,마약,image,z,0,0,0,,,,,,,,,,,,,slash,0,0.5213083999988157,None,,,,,,,,,,,,,,,,,1,0,1,0,0,0,0,0,160.32815750001464,,,,,,,,,,,,,,,,,,,,,,,,,,,,,,,,,,,,,,,,,,,,,,,,,,,,,,,,,,,,,,,,,,,,,,,,,,,,,,,,,,,,,160.27004230002058,160.27071120002074,160.31102660001488,160.32815750001464,160.32815750001464,160.32815750001464,160.32815750001464,160.3954875000054,160.9408672999998,slash,0,0.5213083999988157,None,160.94232520001242,161.0800678000087,161.311829400016,161.23369630001253,286422,001,2025-07-08_19h07.18.796,SC-IAT,2024.2.4,59.897670820961345,2025-07-08 19h07.42.759535 +0900,
화나다.jpg,부정,image,slash,1,1,0,,,,,,,,,,,,,slash,1,0.40049599998747,None,,,,,,,,,,,,,,,,,1,0,1,0,0,1,1,1,161.311829400016,,,,,,,,,,,,,,,,,,,,,,,,,,,,,,,,,,,,,,,,,,,,,,,,,,,,,,,,,,,,,,,,,,,,,,,,,,,,,,,,,,,,,,,161.29892790000304,161.311829400016,161.311829400016,161.311829400016,161.311829400016,161.36133880002308,161.77324229999795,slash,1,0.40049599998747,None,161.77768910001032,161.91561140000704,162.11298410000745,162.051970600005,286422,001,2025-07-08_19h07.18.796,SC-IAT,2024.2.4,59.897670820961345,2025-07-08 19h07.42.759535 +0900,
반갑다.jpg,긍정,image,z,2,2,0,,,,,,,,,,,,,z,1,0.40447369997855276,None,,,,,,,,,,,,,,,,,1,0,1,0,0,2,2,2,162.11298410000745,,,,,,,,,,,,,,,,,,,,,,,,,,,,,,,,,,,,,,,,,,,,,,,,,,,,,,,,,,,,,,,,,,,,,,,,,,,,,,,,,,,,,,,162.09628660001908,162.1467550000234,162.11298410000745,162.11298410000745,162.11298410000745,162.19609680000576,162.6190503000107,z,1,0.40447369997855276,None,162.6201665000117,162.78135470001143,162.98122740001418,162.92194790000212,286422,001,2025-07-08_19h07.18.796,SC-IAT,2024.2.4,59.897670820961345,2025-07-08 19h07.42.759535 +0900,
불행하다.jpg,부정,image,slash,3,3,0,,,,,,,,,,,,,z,0,0.42795029998524114,None,,,,,,,,,,,,,,,,,1,0,1,0,0,3,3,3,162.98122740001418,,,,,,,,,,,,,,,,,,,,,,,,,,,,,,,,,,,,,,,,,,,,,,,,,,,,,,,,,,,,,,,,,,,,,,,,,,,,,,,,,,,,,,,162.9641910000064,162.98122740001418,162.98122740001418,162.98122740001418,162.98122740001418,163.06254880002234,163.50420710002072,z,0,0.42795029998524114,None,163.50525260000722,163.6272248000023,163.8312183000089,163.7669453000126,286422,001,2025-07-08_19h07.18.796,SC-IAT,2024.2.4,59.897670820961345,2025-07-08 19h07.42.759535 +0900,
즐겁다.jpg,긍정,image,z,4,4,0,,,,,,,,,,,,,slash,0,0.4059419999830425,None,,,,,,,,,,,,,,,,,1,0,1,0,0,4,4,4,163.8312183000089,,,,,,,,,,,,,,,,,,,,,,,,,,,,,,,,,,,,,,,,,,,,,,,,,,,,,,,,,,,,,,,,,,,,,,,,,,,,,,,,,,,,,,,163.8048290000006,163.87953310000012,163.8312183000089,163.8312183000089,163.8312183000089,163.9130645999976,164.32125460001407,slash,0,0.4059419999830425,None,164.32199360002414,164.46509969999897,164.728557800001,164.63409930001944,286422,001,2025-07-08_19h07.18.796,SC-IAT,2024.2.4,59.897670820961345,2025-07-08 19h07.42.759535 +0900,
상쾌하다.jpg ,긍정,image,z,5,5,0,,,,,,,,,,,,,slash,0,0.4999398000072688,None,,,,,,,,,,,,,,,,,1,0,1,0,0,5,5,5,164.728557800001,,,,,,,,,,,,,,,,,,,,,,,,,,,,,,,,,,,,,,,,,,,,,,,,,,,,,,,,,,,,,,,,,,,,,,,,,,,,,,,,,,,,,,,164.7032179000089,164.728557800001,164.728557800001,164.728557800001,164.728557800001,164.746066599997,165.255885999999,slash,0,0.4999398000072688,None,165.25923100000364,165.4149452999991,165.66530030002468,165.600623300008,286422,001,2025-07-08_19h07.18.796,SC-IAT,2024.2.4,59.897670820961345,2025-07-08 19h07.42.759535 +0900,
편안하다.jpg,긍정,image,z,6,6,0,,,,,,,,,,,,,z,1,0.5439554000040516,None,,,,,,,,,,,,,,,,,1,0,1,0,0,6,6,6,165.66530030002468,,,,,,,,,,,,,,,,,,,,,,,,,,,,,,,,,,,,,,,,,,,,,,,,,,,,,,,,,,,,,,,,,,,,,,,,,,,,,,,,,,,,,,,165.6399246000219,165.69678510000813,165.66530030002468,165.66530030002468,165.66530030002468,165.7311813000124,166.3055074000149,z,1,0.5439554000040516,None,166.30838430000586,166.4633279000118,166.66404030000558,166.59805870000855,286422,001,2025-07-08_19h07.18.796,SC-IAT,2024.2.4,59.897670820961345,2025-07-08 19h07.42.759535 +0900,
자랑스럽다.jpg,긍정,image,z,7,7,0,,,,,,,,,,,,,slash,0,0.6491197999857832,None,,,,,,,,,,,,,,,,,1,0,1,0,0,7,7,7,166.66404030000558,,,,,,,,,,,,,,,,,,,,,,,,,,,,,,,,,,,,,,,,,,,,,,,,,,,,,,,,,,,,,,,,,,,,,,,,,,,,,,,,,,,,,,,166.64149190002354,166.71411940001417,166.66404030000558,166.66404030000558,166.66404030000558,166.71411940001417,167.37216560001252,slash,0,0.6491197999857832,None,167.37530770001467,167.53168970000115,167.72823970002355,167.68941260001156,286422,001,2025-07-08_19h07.18.796,SC-IAT,2024.2.4,59.897670820961345,2025-07-08 19h07.42.759535 +0900,
끔찍하다.jpg,부정,image,slash,8,8,0,,,,,,,,,,,,,z,0,0.6584026000055019,None,,,,,,,,,,,,,,,,,1,0,1,0,0,8,8,8,167.72823970002355,,,,,,,,,,,,,,,,,,,,,,,,,,,,,,,,,,,,,,,,,,,,,,,,,,,,,,,,,,,,,,,,,,,,,,,,,,,,,,,,,,,,,,,167.70709790001274,167.74617300002137,167.72823970002355,167.72823970002355,167.72823970002355,167.79565010001534,168.4722193000198,z,0,0.6584026000055019,None,168.47306119999848,168.613932200009,168.86397920001764,168.78573020000476,286422,001,2025-07-08_19h07.18.796,SC-IAT,2024.2.4,59.897670820961345,2025-07-08 19h07.42.759535 +0900,
drug3.jpg,마약,image,z,9,9,0,,,,,,,,,,,,,slash,0,0.6842642000119668,None,,,,,,,,,,,,,,,,,1,0,1,0,0,9,9,9,168.86397920001764,,,,,,,,,,,,,,,,,,,,,,,,,,,,,,,,,,,,,,,,,,,,,,,,,,,,,,,,,,,,,,,,,,,,,,,,,,,,,,,,,,,,,,,168.8501201000181,168.86397920001764,168.86397920001764,168.86397920001764,168.86397920001764,168.9468398000172,169.6640035000164,slash,0,0.6842642000119668,None,169.66527420000057,169.82877140000346,170.03070339999977,169.97556030002306,286422,001,2025-07-08_19h07.18.796,SC-IAT,2024.2.4,59.897670820961345,2025-07-08 19h07.42.759535 +0900,
섬뜩하다.jpg,부정,image,slash,10,10,0,,,,,,,,,,,,,slash,1,0.5819793000118807,None,,,,,,,,,,,,,,,,,1,0,1,0,0,10,10,10,170.03070339999977,,,,,,,,,,,,,,,,,,,,,,,,,,,,,,,,,,,,,,,,,,,,,,,,,,,,,,,,,,,,,,,,,,,,,,,,,,,,,,,,,,,,,,,170.00578990002396,170.06375310002477,170.03070339999977,170.03070339999977,170.03070339999977,170.09628100000555,170.68566710001323,slash,1,0.5819793000118807,None,170.68842590000713,170.8299542000168,171.0785262999998,171.0045078000112,286422,001,2025-07-08_19h07.18.796,SC-IAT,2024.2.4,59.897670820961345,2025-07-08 19h07.42.759535 +0900,
drug7.jpg,마약,image,z,11,11,0,,,,,,,,,,,,,slash,0,0.4316844000131823,None,,,,,,,,,,,,,,,,,1,0,1,0,0,11,11,11,171.0785262999998,,,,,,,,,,,,,,,,,,,,,,,,,,,,,,,,,,,,,,,,,,,,,,,,,,,,,,,,,,,,,,,,,,,,,,,,,,,,,,,,,,,,,,,171.06868290001876,171.0785262999998,171.0785262999998,171.0785262999998,171.0785262999998,171.11268120000022,171.58627090000664,slash,0,0.4316844000131823,None,171.58879249999882,171.7131561000133,171.9308880000026,171.86695630001486,286422,001,2025-07-08_19h07.18.796,SC-IAT,2024.2.4,59.897670820961345,2025-07-08 19h07.42.759535 +0900,
신나다.jpg,긍정,image,z,12,12,0,,,,,,,,,,,,,z,1,0.7571091999998316,None,,,,,,,,,,,,,,,,,1,0,1,0,0,12,12,12,171.9308880000026,,,,,,,,,,,,,,,,,,,,,,,,,,,,,,,,,,,,,,,,,,,,,,,,,,,,,,,,,,,,,,,,,,,,,,,,,,,,,,,,,,,,,,,171.90871859999606,171.97997670000768,171.9308880000026,171.9308880000026,171.9308880000026,172.01416020002216,172.82283680001274,z,1,0.7571091999998316,None,172.83715500001563,172.9493807000108,173.16112890001386,173.12373910000315,286422,001,2025-07-08_19h07.18.796,SC-IAT,2024.2.4,59.897670820961345,2025-07-08 19h07.42.759535 +0900,
drug5.jpg,마약,image,z,13,13,0,,,,,,,,,,,,,z,1,0.6383772999979556,None,,,,,,,,,,,,,,,,,1,0,1,0,0,13,13,13,173.16112890001386,,,,,,,,,,,,,,,,,,,,,,,,,,,,,,,,,,,,,,,,,,,,,,,,,,,,,,,,,,,,,,,,,,,,,,,,,,,,,,,,,,,,,,,173.1401603000122,173.1800360000052,173.16112890001386,173.16112890001386,173.16112890001386,173.22919800001546,173.9060860000027,z,1,0.6383772999979556,None,173.91921110000112,174.04444389999844,174.3305733000161,174.21895690000383,286422,001,2025-07-08_19h07.18.796,SC-IAT,2024.2.4,59.897670820961345,2025-07-08 19h07.42.759535 +0900,
슬프다.jpg,부정,image,slash,14,14,0,,,,,,,,,,,,,slash,1,0.4726960000116378,None,,,,,,,,,,,,,,,,,1,0,1,0,0,14,14,14,174.3305733000161,,,,,,,,,,,,,,,,,,,,,,,,,,,,,,,,,,,,,,,,,,,,,,,,,,,,,,,,,,,,,,,,,,,,,,,,,,,,,,,,,,,,,,,174.30086030001985,174.3305733000161,174.3305733000161,174.3305733000161,174.3305733000161,174.36331320001045,174.85425180001766,slash,1,0.4726960000116378,None,174.85592080000788,174.99901250001858,175.194822200021,175.16377320000902,286422,001,2025-07-08_19h07.18.796,SC-IAT,2024.2.4,59.897670820961345,2025-07-08 19h07.42.759535 +0900,
평화롭다.jpg,긍정,image,z,15,15,0,,,,,,,,,,,,,z,1,0.5047092000022531,None,,,,,,,,,,,,,,,,,1,0,1,0,0,15,15,15,175.194822200021,,,,,,,,,,,,,,,,,,,,,,,,,,,,,,,,,,,,,,,,,,,,,,,,,,,,,,,,,,,,,,,,,,,,,,,,,,,,,,,,,,,,,,,175.18329909999738,175.26387230001274,175.194822200021,175.194822200021,175.194822200021,175.2982173000055,175.83632830000715,z,1,0.5047092000022531,None,175.83779660001164,175.97914730000775,176.21362160000717,176.14962490001926,286422,001,2025-07-08_19h07.18.796,SC-IAT,2024.2.4,59.897670820961345,2025-07-08 19h07.42.759535 +0900,
환희하다.jpg,긍정,image,z,16,16,0,,,,,,,,,,,,,z,1,0.276513300021179,None,,,,,,,,,,,,,,,,,1,0,1,0,0,16,16,16,176.21362160000717,,,,,,,,,,,,,,,,,,,,,,,,,,,,,,,,,,,,,,,,,,,,,,,,,,,,,,,,,,,,,,,,,,,,,,,,,,,,,,,,,,,,,,,176.1843715000141,176.21362160000717,176.21362160000717,176.21362160000717,176.21362160000717,176.31237390000024,176.61953980001272,z,1,0.276513300021179,None,176.621011500014,176.76487800001632,176.96130520000588,176.9217110000027,286422,001,2025-07-08_19h07.18.796,SC-IAT,2024.2.4,59.897670820961345,2025-07-08 19h07.42.759535 +0900,
흐뭇하다.jpg,긍정,image,z,17,17,0,,,,,,,,,,,,,slash,0,0.4342373000108637,None,,,,,,,,,,,,,,,,,1,0,1,0,0,17,17,17,176.96130520000588,,,,,,,,,,,,,,,,,,,,,,,,,,,,,,,,,,,,,,,,,,,,,,,,,,,,,,,,,,,,,,,,,,,,,,,,,,,,,,,,,,,,,,,176.93801500002155,176.97909070001333,176.96130520000588,176.96130520000588,176.96130520000588,177.02816370001528,177.4719124000112,slash,0,0.4342373000108637,None,177.4728539000207,177.59636380002485,177.79622550000204,177.7450314000016,286422,001,2025-07-08_19h07.18.796,SC-IAT,2024.2.4,59.897670820961345,2025-07-08 19h07.42.759535 +0900,
유쾌하다.jpg,긍정,image,z,18,18,0,,,,,,,,,,,,,slash,0,0.4563748999789823,None,,,,,,,,,,,,,,,,,1,0,1,0,0,18,18,18,177.79622550000204,,,,,,,,,,,,,,,,,,,,,,,,,,,,,,,,,,,,,,,,,,,,,,,,,,,,,,,,,,,,,,,,,,,,,,,,,,,,,,,,,,,,,,,177.78056020001532,177.83015230001183,177.79622550000204,177.79622550000204,177.79622550000204,177.86497990001226,178.36671980001847,slash,0,0.4563748999789823,None,178.36807550000958,178.53133120000712,178.7111613000161,178.6871655000141,286422,001,2025-07-08_19h07.18.796,SC-IAT,2024.2.4,59.897670820961345,2025-07-08 19h07.42.759535 +0900,
좌절하다.jpg,부정,image,slash,19,19,0,,,,,,,,,,,,,slash,1,0.6421808999730274,None,,,,,,,,,,,,,,,,,1,0,1,0,0,19,19,19,178.7111613000161,,,,,,,,,,,,,,,,,,,,,,,,,,,,,,,,,,,,,,,,,,,,,,,,,,,,,,,,,,,,,,,,,,,,,,,,,,,,,,,,,,,,,,,178.70483760000207,178.74658210002235,178.7111613000161,178.7111613000161,178.7111613000161,178.81534920001286,179.4728009000246,slash,1,0.6421808999730274,None,179.47822129999986,179.59569860002375,179.77846699999645,179.74045060001663,286422,001,2025-07-08_19h07.18.796,SC-IAT,2024.2.4,59.897670820961345,2025-07-08 19h07.42.759535 +0900,
불쾌하다.jpg,부정,image,slash,20,20,0,,,,,,,,,,,,,slash,1,0.49075760002597235,None,,,,,,,,,,,,,,,,,1,0,1,0,0,20,20,20,179.77846699999645,,,,,,,,,,,,,,,,,,,,,,,,,,,,,,,,,,,,,,,,,,,,,,,,,,,,,,,,,,,,,,,,,,,,,,,,,,,,,,,,,,,,,,,179.77031410002382,179.797255100013,179.77846699999645,179.77846699999645,179.77846699999645,179.8468480000156,180.3555360000173,slash,1,0.49075760002597235,None,180.36268089999794,180.48206270000082,180.71317790000467,180.6482631000108,286422,001,2025-07-08_19h07.18.796,SC-IAT,2024.2.4,59.897670820961345,2025-07-08 19h07.42.759535 +0900,
재미있다.jpg,긍정,image,z,21,21,0,,,,,,,,,,,,,z,1,0.4495594999752939,None,,,,,,,,,,,,,,,,,1,0,1,0,0,21,21,21,180.71317790000467,,,,,,,,,,,,,,,,,,,,,,,,,,,,,,,,,,,,,,,,,,,,,,,,,,,,,,,,,,,,,,,,,,,,,,,,,,,,,,,,,,,,,,,180.68627510001534,180.71317790000467,180.71317790000467,180.71317790000467,180.71317790000467,180.79698750001262,181.25446140000713,z,1,0.4495594999752939,None,181.2577183000103,181.38293790002353,181.59764600000926,181.53435400000308,286422,001,2025-07-08_19h07.18.796,SC-IAT,2024.2.4,59.897670820961345,2025-07-08 19h07.42.759535 +0900,
만족하다.jpg,긍정,image,z,22,22,0,,,,,,,,,,,,,z,1,0.90269580000313,None,,,,,,,,,,,,,,,,,1,0,1,0,0,22,22,22,181.59764600000926,,,,,,,,,,,,,,,,,,,,,,,,,,,,,,,,,,,,,,,,,,,,,,,,,,,,,,,,,,,,,,,,,,,,,,,,,,,,,,,,,,,,,,,181.57130229999893,181.64764110001852,181.59764600000926,181.59764600000926,181.59764600000926,181.69719870001427,182.624673000013,z,1,0.90269580000313,None,182.62675240001408,182.7463080000016,182.99691790001816,182.89971420000074,286422,001,2025-07-08_19h07.18.796,SC-IAT,2024.2.4,59.897670820961345,2025-07-08 19h07.42.759535 +0900,
뿌듯하다.jpg,긍정,image,z,23,23,0,,,,,,,,,,,,,slash,0,1.1565118999860715,None,,,,,,,,,,,,,,,,,1,0,1,0,0,23,23,23,182.99691790001816,,,,,,,,,,,,,,,,,,,,,,,,,,,,,,,,,,,,,,,,,,,,,,,,,,,,,,,,,,,,,,,,,,,,,,,,,,,,,,,,,,,,,,,182.9724485000188,182.99691790001816,182.99691790001816,182.99691790001816,182.99691790001816,183.03026850000606,184.23442690001684,slash,0,1.1565118999860715,None,184.23736650001956,184.37753970001359,184.67886850002105,184.52690360002453,286422,001,2025-07-08_19h07.18.796,SC-IAT,2024.2.4,59.897670820961345,2025-07-08 19h07.42.759535 +0900,
,,,,1,0,1,,,,,,,,,,,,,,,,,,,,,,,,,,,,,,,,,1,0,1,0,,,,,,,,,,,,,,,,,,,,,,,,,,,,,,,,,,,,,,,,,,,,,,,,,,,,,,,,,,,,,,,,,,,,,,,,,,,,,,,,,,,,,,,,,,,,,,,,,,,,,,,,,,,286422,001,2025-07-08_19h07.18.796,SC-IAT,2024.2.4,59.897670820961345,2025-07-08 19h07.42.759535 +0900,
상쾌하다.jpg ,긍정,image,z,0,0,0,,,,,,,,,,,,,slash,0,0.8919227000151295,None,,,,,,,,,,,,,,,,,2,0,2,0,0,0,0,0,184.67886850002105,,,,,,,,,,,,,,,,,,,,,,,,,,,,,,,,,,,,,,,,,,,,,,,,,,,,,,,,,,,,,,,,,,,,,,,,,,,,,,,,,,,,,184.61470050000935,184.61586869999883,184.66774940001778,184.67886850002105,184.67886850002105,184.67886850002105,184.67886850002105,184.72962379999808,185.64444790000562,slash,0,0.8919227000151295,None,185.64746320000268,185.77828910000972,185.97928150001098,185.92451240000082,286422,001,2025-07-08_19h07.18.796,SC-IAT,2024.2.4,59.897670820961345,2025-07-08 19h07.42.759535 +0900,
반갑다.jpg,긍정,image,z,1,1,0,,,,,,,,,,,,,slash,0,0.4314111999992747,None,,,,,,,,,,,,,,,,,2,0,2,0,0,1,1,1,185.97928150001098,,,,,,,,,,,,,,,,,,,,,,,,,,,,,,,,,,,,,,,,,,,,,,,,,,,,,,,,,,,,,,,,,,,,,,,,,,,,,,,,,,,,,,,185.96136060002027,185.99594000002253,185.97928150001098,185.97928150001098,185.97928150001098,186.02974480000557,186.49958850000985,slash,0,0.4314111999992747,None,186.50295429999824,186.62837600000785,186.8123013000004,186.77223050000612,286422,001,2025-07-08_19h07.18.796,SC-IAT,2024.2.4,59.897670820961345,2025-07-08 19h07.42.759535 +0900,
불만족하다.jpg,부정,image,slash,2,2,0,,,,,,,,,,,,,z,0,1.1308908000064548,None,,,,,,,,,,,,,,,,,2,0,2,0,0,2,2,2,186.8123013000004,,,,,,,,,,,,,,,,,,,,,,,,,,,,,,,,,,,,,,,,,,,,,,,,,,,,,,,,,,,,,,,,,,,,,,,,,,,,,,,,,,,,,,,186.79553500001202,186.84573090000777,186.8123013000004,186.8123013000004,186.8123013000004,186.91288080002414,188.05687359999865,z,0,1.1308908000064548,None,188.05955980002182,188.19484900002135,188.4321637999965,188.36029860001872,286422,001,2025-07-08_19h07.18.796,SC-IAT,2024.2.4,59.897670820961345,2025-07-08 19h07.42.759535 +0900,
증오하다.jpg,부정,image,slash,3,3,0,,,,,,,,,,,,,z,0,0.6379323999863118,None,,,,,,,,,,,,,,,,,2,0,2,0,0,3,3,3,188.4321637999965,,,,,,,,,,,,,,,,,,,,,,,,,,,,,,,,,,,,,,,,,,,,,,,,,,,,,,,,,,,,,,,,,,,,,,,,,,,,,,,,,,,,,,,188.40165410001646,188.4321637999965,188.4321637999965,188.4321637999965,188.4321637999965,188.53006109999842,189.22038330000942,z,0,0.6379323999863118,None,189.2219199000101,189.36354820002452,189.54488610001863,189.50395780001418,286422,001,2025-07-08_19h07.18.796,SC-IAT,2024.2.4,59.897670820961345,2025-07-08 19h07.42.759535 +0900,
